"trial_type","trial_index","time_elapsed","internal_node_id","rt","responses","partNum","view_history","key_press","images","key_choice","image_i_chosen","feedback_correct","phase","correct_stim","correct","score"
"pavlovia","0","5","0.0-0.0","","","","","","","","","","","","",""
"survey-text","1","4031","0.0-1.0","4024","{""Q0"":""101""}","""101""","","","","","","","","","",""
"instructions","2","28280","0.0-2.0-0.0","24249","","","[{""page_index"":0,""viewing_time"":13453},{""page_index"":1,""viewing_time"":4983},{""page_index"":2,""viewing_time"":4413},{""page_index"":3,""viewing_time"":1399}]","","","","","","","","",""
"two-choice","3","31012","0.0-3.0-0.0","1222","","","","0","images/slot2_up.png,images/slot1_up.png","0","1","0","trial","0","0","0"
"two-choice","4","34086","0.0-3.1-0.1","792","","","","0","images/slot2_up.png,images/slot1_up.png","0","1","0","trial","0","0","0"
"two-choice","5","37220","0.0-3.2-0.2","858","","","","0","images/slot1_up.png,images/slot2_up.png","0","0","1","trial","0","1","1"
"two-choice","6","40174","0.0-3.3-0.3","675","","","","2","images/slot2_up.png,images/slot1_up.png","1","0","1","trial","0","1","2"
"two-choice","7","42975","0.0-3.4-0.4","523","","","","2","images/slot2_up.png,images/slot1_up.png","1","0","0","trial","1","0","2"
"two-choice","8","45766","0.0-3.5-0.5","520","","","","2","images/slot2_up.png,images/slot1_up.png","1","0","1","trial","0","1","3"
"two-choice","9","48555","0.0-3.6-0.6","508","","","","2","images/slot2_up.png,images/slot1_up.png","1","0","1","trial","0","1","4"
"two-choice","10","51231","0.0-3.7-0.7","412","","","","2","images/slot2_up.png,images/slot1_up.png","1","0","1","trial","0","1","5"
"two-choice","11","54092","0.0-3.8-0.8","584","","","","0","images/slot1_up.png,images/slot2_up.png","0","0","1","trial","0","1","6"
"two-choice","12","56868","0.0-3.9-0.9","514","","","","2","images/slot2_up.png,images/slot1_up.png","1","0","1","trial","0","1","7"
"two-choice","13","59684","0.0-3.10-0.10","545","","","","2","images/slot2_up.png,images/slot1_up.png","1","0","1","trial","0","1","8"
"two-choice","14","62454","0.0-3.11-0.11","496","","","","2","images/slot2_up.png,images/slot1_up.png","1","0","1","trial","0","1","9"
"two-choice","15","65276","0.0-3.12-0.12","554","","","","0","images/slot1_up.png,images/slot2_up.png","0","0","1","trial","0","1","10"
"two-choice","16","68084","0.0-3.13-0.13","532","","","","2","images/slot2_up.png,images/slot1_up.png","1","0","1","trial","0","1","11"
"two-choice","17","70872","0.0-3.14-0.14","506","","","","2","images/slot2_up.png,images/slot1_up.png","1","0","1","trial","0","1","12"
"two-choice","18","73603","0.0-3.15-0.15","463","","","","2","images/slot2_up.png,images/slot1_up.png","1","0","1","trial","0","1","13"
"two-choice","19","76347","0.0-3.16-0.16","477","","","","2","images/slot2_up.png,images/slot1_up.png","1","0","0","trial","1","0","13"
"two-choice","20","79029","0.0-3.17-0.17","408","","","","0","images/slot2_up.png,images/slot1_up.png","0","1","0","trial","0","0","13"
"two-choice","21","81660","0.0-3.18-0.18","351","","","","2","images/slot2_up.png,images/slot1_up.png","1","0","0","trial","1","0","13"
"two-choice","22","84596","0.0-3.19-0.19","657","","","","2","images/slot1_up.png,images/slot2_up.png","1","1","1","trial","1","1","14"
"two-choice","23","87508","0.0-3.20-0.20","644","","","","0","images/slot2_up.png,images/slot1_up.png","0","1","1","trial","1","1","15"
"two-choice","24","90342","0.0-3.21-0.21","553","","","","2","images/slot1_up.png,images/slot2_up.png","1","1","1","trial","1","1","16"
"two-choice","25","93031","0.0-3.22-0.22","412","","","","2","images/slot1_up.png,images/slot2_up.png","1","1","0","trial","0","0","16"
"two-choice","26","95726","0.0-3.23-0.23","429","","","","0","images/slot2_up.png,images/slot1_up.png","0","1","1","trial","1","1","17"
"two-choice","27","98670","0.0-3.24-0.24","677","","","","2","images/slot1_up.png,images/slot2_up.png","1","1","1","trial","1","1","18"
"two-choice","28","101508","0.0-3.25-0.25","568","","","","2","images/slot1_up.png,images/slot2_up.png","1","1","1","trial","1","1","19"
"two-choice","29","104292","0.0-3.26-0.26","512","","","","0","images/slot2_up.png,images/slot1_up.png","0","1","1","trial","1","1","20"
"two-choice","30","107055","0.0-3.27-0.27","475","","","","2","images/slot1_up.png,images/slot2_up.png","1","1","0","trial","0","0","20"
"two-choice","31","109743","0.0-3.28-0.28","415","","","","2","images/slot1_up.png,images/slot2_up.png","1","1","1","trial","1","1","21"
"two-choice","32","112475","0.0-3.29-0.29","463","","","","2","images/slot1_up.png,images/slot2_up.png","1","1","1","trial","1","1","22"
"two-choice","33","115357","0.0-3.30-0.30","614","","","","0","images/slot2_up.png,images/slot1_up.png","0","1","1","trial","1","1","23"
"two-choice","34","118085","0.0-3.31-0.31","450","","","","0","images/slot2_up.png,images/slot1_up.png","0","1","1","trial","1","1","24"
"two-choice","35","120796","0.0-3.32-0.32","443","","","","2","images/slot1_up.png,images/slot2_up.png","1","1","1","trial","1","1","25"
"two-choice","36","123591","0.0-3.33-0.33","527","","","","0","images/slot2_up.png,images/slot1_up.png","0","1","0","trial","0","0","25"
"two-choice","37","126603","0.0-3.34-0.34","749","","","","2","images/slot2_up.png,images/slot1_up.png","1","0","0","trial","1","0","25"
"two-choice","38","129309","0.0-3.35-0.35","433","","","","2","images/slot2_up.png,images/slot1_up.png","1","0","1","trial","0","1","26"
"two-choice","39","132036","0.0-3.36-0.36","459","","","","0","images/slot1_up.png,images/slot2_up.png","0","0","1","trial","0","1","27"
"two-choice","40","134678","0.0-3.37-0.37","362","","","","0","images/slot1_up.png,images/slot2_up.png","0","0","1","trial","0","1","28"
"two-choice","41","137403","0.0-3.38-0.38","457","","","","2","images/slot2_up.png,images/slot1_up.png","1","0","0","trial","1","0","28"
"two-choice","42","140119","0.0-3.39-0.39","445","","","","0","images/slot1_up.png,images/slot2_up.png","0","0","1","trial","0","1","29"
"two-choice","43","143147","0.0-3.40-0.40","762","","","","0","images/slot1_up.png,images/slot2_up.png","0","0","0","trial","1","0","29"
"two-choice","44","145903","0.0-3.41-0.41","487","","","","2","images/slot1_up.png,images/slot2_up.png","1","1","0","trial","0","0","29"
"two-choice","45","148477","0.0-3.42-0.42","306","","","","2","images/slot1_up.png,images/slot2_up.png","1","1","0","trial","0","0","29"
"two-choice","46","151155","0.0-3.43-0.43","410","","","","0","images/slot1_up.png,images/slot2_up.png","0","0","1","trial","0","1","30"
"two-choice","47","153876","0.0-3.44-0.44","451","","","","0","images/slot1_up.png,images/slot2_up.png","0","0","1","trial","0","1","31"
"two-choice","48","156531","0.0-3.45-0.45","388","","","","0","images/slot1_up.png,images/slot2_up.png","0","0","1","trial","0","1","32"
"two-choice","49","159204","0.0-3.46-0.46","408","","","","0","images/slot1_up.png,images/slot2_up.png","0","0","1","trial","0","1","33"
"two-choice","50","162023","0.0-3.47-0.47","552","","","","0","images/slot1_up.png,images/slot2_up.png","0","0","1","trial","0","1","34"
"two-choice","51","164670","0.0-3.48-0.48","376","","","","0","images/slot1_up.png,images/slot2_up.png","0","0","1","trial","0","1","35"
"two-choice","52","167437","0.0-3.49-0.49","496","","","","0","images/slot2_up.png,images/slot1_up.png","0","1","1","trial","1","1","36"
"two-choice","53","170638","0.0-3.50-0.50","937","","","","2","images/slot1_up.png,images/slot2_up.png","1","1","0","trial","0","0","36"
"two-choice","54","173380","0.0-3.51-0.51","476","","","","0","images/slot2_up.png,images/slot1_up.png","0","1","1","trial","1","1","37"
"two-choice","55","176532","0.0-3.52-0.52","883","","","","2","images/slot1_up.png,images/slot2_up.png","1","1","1","trial","1","1","38"
"two-choice","56","179335","0.0-3.53-0.53","533","","","","0","images/slot2_up.png,images/slot1_up.png","0","1","1","trial","1","1","39"
"two-choice","57","182251","0.0-3.54-0.54","635","","","","0","images/slot2_up.png,images/slot1_up.png","0","1","1","trial","1","1","40"
"two-choice","58","184964","0.0-3.55-0.55","444","","","","0","images/slot2_up.png,images/slot1_up.png","0","1","1","trial","1","1","41"
"two-choice","59","187878","0.0-3.56-0.56","643","","","","2","images/slot1_up.png,images/slot2_up.png","1","1","1","trial","1","1","42"
"two-choice","60","190551","0.0-3.57-0.57","399","","","","2","images/slot1_up.png,images/slot2_up.png","1","1","1","trial","1","1","43"
"two-choice","61","193251","0.0-3.58-0.58","424","","","","0","images/slot2_up.png,images/slot1_up.png","0","1","1","trial","1","1","44"
"two-choice","62","196140","0.0-3.59-0.59","614","","","","2","images/slot1_up.png,images/slot2_up.png","1","1","1","trial","1","1","45"
"two-choice","63","198998","0.0-3.60-0.60","577","","","","0","images/slot2_up.png,images/slot1_up.png","0","1","1","trial","1","1","46"
"two-choice","64","202035","0.0-3.61-0.61","767","","","","0","images/slot2_up.png,images/slot1_up.png","0","1","1","trial","1","1","47"
"two-choice","65","204708","0.0-3.62-0.62","414","","","","0","images/slot2_up.png,images/slot1_up.png","0","1","0","trial","0","0","47"
"two-choice","66","207479","0.0-3.63-0.63","491","","","","0","images/slot1_up.png,images/slot2_up.png","0","0","1","trial","0","1","48"
"two-choice","67","210301","0.0-3.64-0.64","550","","","","0","images/slot1_up.png,images/slot2_up.png","0","0","0","trial","1","0","48"
"two-choice","68","213315","0.0-3.65-0.65","742","","","","0","images/slot2_up.png,images/slot1_up.png","0","1","1","trial","1","1","49"
"two-choice","69","216043","0.0-3.66-0.66","468","","","","0","images/slot2_up.png,images/slot1_up.png","0","1","1","trial","1","1","50"
"two-choice","70","218693","0.0-3.67-0.67","377","","","","0","images/slot2_up.png,images/slot1_up.png","0","1","1","trial","1","1","51"
"two-choice","71","221440","0.0-3.68-0.68","470","","","","2","images/slot1_up.png,images/slot2_up.png","1","1","1","trial","1","1","52"
"two-choice","72","224221","0.0-3.69-0.69","512","","","","0","images/slot2_up.png,images/slot1_up.png","0","1","0","trial","0","0","52"
"two-choice","73","227048","0.0-3.70-0.70","551","","","","2","images/slot2_up.png,images/slot1_up.png","1","0","1","trial","0","1","53"
"two-choice","74","229800","0.0-3.71-0.71","472","","","","0","images/slot1_up.png,images/slot2_up.png","0","0","1","trial","0","1","54"
"two-choice","75","232699","0.0-3.72-0.72","633","","","","0","images/slot1_up.png,images/slot2_up.png","0","0","1","trial","0","1","55"
"two-choice","76","235774","0.0-3.73-0.73","796","","","","2","images/slot2_up.png,images/slot1_up.png","1","0","0","trial","1","0","55"
"two-choice","77","238835","0.0-3.74-0.74","791","","","","2","images/slot1_up.png,images/slot2_up.png","1","1","1","trial","1","1","56"
"two-choice","78","241830","0.0-3.75-0.75","730","","","","2","images/slot1_up.png,images/slot2_up.png","1","1","1","trial","1","1","57"
"two-choice","79","244548","0.0-3.76-0.76","449","","","","2","images/slot1_up.png,images/slot2_up.png","1","1","0","trial","0","0","57"
"two-choice","80","247309","0.0-3.77-0.77","494","","","","2","images/slot2_up.png,images/slot1_up.png","1","0","1","trial","0","1","58"
"two-choice","81","250140","0.0-3.78-0.78","566","","","","0","images/slot1_up.png,images/slot2_up.png","0","0","1","trial","0","1","59"
"two-choice","82","253195","0.0-3.79-0.79","777","","","","2","images/slot2_up.png,images/slot1_up.png","1","0","0","trial","1","0","59"
"two-choice","83","256012","0.0-3.80-0.80","544","","","","0","images/slot2_up.png,images/slot1_up.png","0","1","1","trial","1","1","60"
"two-choice","84","259125","0.0-3.81-0.81","835","","","","2","images/slot1_up.png,images/slot2_up.png","1","1","0","trial","0","0","60"
"two-choice","85","261932","0.0-3.82-0.82","529","","","","0","images/slot2_up.png,images/slot1_up.png","0","1","0","trial","0","0","60"
"two-choice","86","264989","0.0-3.83-0.83","781","","","","0","images/slot2_up.png,images/slot1_up.png","0","1","0","trial","0","0","60"
"two-choice","87","268027","0.0-3.84-0.84","762","","","","2","images/slot1_up.png,images/slot2_up.png","1","1","0","trial","0","0","60"
"two-choice","88","270701","0.0-3.85-0.85","403","","","","0","images/slot2_up.png,images/slot1_up.png","0","1","1","trial","1","1","61"
"two-choice","89","273470","0.0-3.86-0.86","493","","","","0","images/slot2_up.png,images/slot1_up.png","0","1","1","trial","1","1","62"
"two-choice","90","276495","0.0-3.87-0.87","751","","","","2","images/slot1_up.png,images/slot2_up.png","1","1","1","trial","1","1","63"
"two-choice","91","279231","0.0-3.88-0.88","466","","","","2","images/slot1_up.png,images/slot2_up.png","1","1","0","trial","0","0","63"
"two-choice","92","282092","0.0-3.89-0.89","592","","","","2","images/slot2_up.png,images/slot1_up.png","1","0","0","trial","1","0","63"
"two-choice","93","284948","0.0-3.90-0.90","576","","","","2","images/slot1_up.png,images/slot2_up.png","1","1","1","trial","1","1","64"
"two-choice","94","287840","0.0-3.91-0.91","608","","","","0","images/slot2_up.png,images/slot1_up.png","0","1","1","trial","1","1","65"
"two-choice","95","290651","0.0-3.92-0.92","544","","","","0","images/slot2_up.png,images/slot1_up.png","0","1","0","trial","0","0","65"
"two-choice","96","293445","0.0-3.93-0.93","529","","","","2","images/slot2_up.png,images/slot1_up.png","1","0","0","trial","1","0","65"
"two-choice","97","296101","0.0-3.94-0.94","388","","","","0","images/slot2_up.png,images/slot1_up.png","0","1","0","trial","0","0","65"
"two-choice","98","298847","0.0-3.95-0.95","477","","","","0","images/slot1_up.png,images/slot2_up.png","0","0","1","trial","0","1","66"
"two-choice","99","301703","0.0-3.96-0.96","588","","","","2","images/slot2_up.png,images/slot1_up.png","1","0","0","trial","1","0","66"
"two-choice","100","304427","0.0-3.97-0.97","447","","","","2","images/slot1_up.png,images/slot2_up.png","1","1","1","trial","1","1","67"
"two-choice","101","307191","0.0-3.98-0.98","492","","","","0","images/slot2_up.png,images/slot1_up.png","0","1","0","trial","0","0","67"
"two-choice","102","309942","0.0-3.99-0.99","484","","","","2","images/slot2_up.png,images/slot1_up.png","1","0","1","trial","0","1","68"
"two-choice","103","312638","0.0-3.100-0.100","422","","","","0","images/slot1_up.png,images/slot2_up.png","0","0","0","trial","1","0","68"
"two-choice","104","315524","0.0-3.101-0.101","616","","","","0","images/slot2_up.png,images/slot1_up.png","0","1","0","trial","0","0","68"
"two-choice","105","318415","0.0-3.102-0.102","610","","","","0","images/slot1_up.png,images/slot2_up.png","0","0","1","trial","0","1","69"
"two-choice","106","321100","0.0-3.103-0.103","409","","","","2","images/slot1_up.png,images/slot2_up.png","1","1","0","trial","0","0","69"
"two-choice","107","323846","0.0-3.104-0.104","468","","","","0","images/slot1_up.png,images/slot2_up.png","0","0","1","trial","0","1","70"
"two-choice","108","326710","0.0-3.105-0.105","585","","","","2","images/slot2_up.png,images/slot1_up.png","1","0","1","trial","0","1","71"
"two-choice","109","329459","0.0-3.106-0.106","469","","","","0","images/slot1_up.png,images/slot2_up.png","0","0","1","trial","0","1","72"
"two-choice","110","332190","0.0-3.107-0.107","469","","","","0","images/slot1_up.png,images/slot2_up.png","0","0","1","trial","0","1","73"
"two-choice","111","334979","0.0-3.108-0.108","518","","","","2","images/slot2_up.png,images/slot1_up.png","1","0","0","trial","1","0","73"
"two-choice","112","337853","0.0-3.109-0.109","600","","","","0","images/slot1_up.png,images/slot2_up.png","0","0","1","trial","0","1","74"
"two-choice","113","340539","0.0-3.110-0.110","408","","","","0","images/slot1_up.png,images/slot2_up.png","0","0","0","trial","1","0","74"
"two-choice","114","343187","0.0-3.111-0.111","374","","","","2","images/slot1_up.png,images/slot2_up.png","1","1","0","trial","0","0","74"
"two-choice","115","345814","0.0-3.112-0.112","359","","","","0","images/slot2_up.png,images/slot1_up.png","0","1","0","trial","0","0","74"
"two-choice","116","348379","0.0-3.113-0.113","295","","","","2","images/slot2_up.png,images/slot1_up.png","1","0","1","trial","0","1","75"
"two-choice","117","351116","0.0-3.114-0.114","475","","","","2","images/slot2_up.png,images/slot1_up.png","1","0","0","trial","1","0","75"
"two-choice","118","353767","0.0-3.115-0.115","368","","","","0","images/slot1_up.png,images/slot2_up.png","0","0","0","trial","1","0","75"
"two-choice","119","356399","0.0-3.116-0.116","360","","","","2","images/slot1_up.png,images/slot2_up.png","1","1","0","trial","0","0","75"
"two-choice","120","359095","0.0-3.117-0.117","422","","","","0","images/slot2_up.png,images/slot1_up.png","0","1","0","trial","0","0","75"
"two-choice","121","361676","0.0-3.118-0.118","314","","","","2","images/slot1_up.png,images/slot2_up.png","1","1","1","trial","1","1","76"
"two-choice","122","364548","0.0-3.119-0.119","588","","","","2","images/slot2_up.png,images/slot1_up.png","1","0","1","trial","0","1","77"
"two-choice","123","367211","0.0-3.120-0.120","389","","","","2","images/slot2_up.png,images/slot1_up.png","1","0","0","trial","1","0","77"
"two-choice","124","369845","0.0-3.121-0.121","362","","","","0","images/slot2_up.png,images/slot1_up.png","0","1","1","trial","1","1","78"
"two-choice","125","372510","0.0-3.122-0.122","392","","","","0","images/slot2_up.png,images/slot1_up.png","0","1","1","trial","1","1","79"
"two-choice","126","375331","0.0-3.123-0.123","553","","","","0","images/slot1_up.png,images/slot2_up.png","0","0","0","trial","1","0","79"
"two-choice","127","377982","0.0-3.124-0.124","367","","","","2","images/slot2_up.png,images/slot1_up.png","1","0","0","trial","1","0","79"
"two-choice","128","381108","0.0-3.125-0.125","855","","","","2","images/slot1_up.png,images/slot2_up.png","1","1","1","trial","1","1","80"
"two-choice","129","383867","0.0-3.126-0.126","488","","","","0","images/slot1_up.png,images/slot2_up.png","0","0","0","trial","1","0","80"
"two-choice","130","386532","0.0-3.127-0.127","397","","","","2","images/slot1_up.png,images/slot2_up.png","1","1","1","trial","1","1","81"
"two-choice","131","389127","0.0-3.128-0.128","313","","","","2","images/slot1_up.png,images/slot2_up.png","1","1","1","trial","1","1","82"
"two-choice","132","391764","0.0-3.129-0.129","367","","","","2","images/slot1_up.png,images/slot2_up.png","1","1","1","trial","1","1","83"
"two-choice","133","394331","0.0-3.130-0.130","290","","","","2","images/slot1_up.png,images/slot2_up.png","1","1","1","trial","1","1","84"
"two-choice","134","397032","0.0-3.131-0.131","425","","","","2","images/slot1_up.png,images/slot2_up.png","1","1","0","trial","0","0","84"
"two-choice","135","399879","0.0-3.132-0.132","576","","","","0","images/slot1_up.png,images/slot2_up.png","0","0","0","trial","1","0","84"
"two-choice","136","402652","0.0-3.133-0.133","506","","","","0","images/slot2_up.png,images/slot1_up.png","0","1","0","trial","0","0","84"
"two-choice","137","405357","0.0-3.134-0.134","434","","","","2","images/slot2_up.png,images/slot1_up.png","1","0","0","trial","1","0","84"
