trial_type,trial_index,time_elapsed,internal_node_id,rt,responses,partNum,view_history,key_press,images,key_choice,image_i_chosen,feedback_correct,phase,correct_stim,correct,score
pavlovia,0,5,0.0-0.0,,,,,,,,,,,,,
survey-text,1,94144,0.0-1.0,94138,{"Q0":"39"},"730",,,,,,,,,,
instructions,2,127741,0.0-2.0-0.0,33595,,,"[{""page_index"":0,""viewing_time"":15216},{""page_index"":1,""viewing_time"":8673},{""page_index"":2,""viewing_time"":7402},{""page_index"":3,""viewing_time"":2303}]",,,,,,,,,
two-choice,3,1,0.0-3.3-0.,1156.82339365594,,,,,,,0,0,trial,,0,0
two-choice,4,1,0.0-3.4-0.,5431.1195188202,,,,,,,1,1,trial,,1,1
two-choice,5,1,0.0-3.5-0.,935.005545732565,,,,,,,1,0,trial,,0,1
two-choice,6,1,0.0-3.6-0.,3060.02360174898,,,,,,,0,0,trial,,0,1
two-choice,7,1,0.0-3.7-0.,975.239720311947,,,,,,,1,0,trial,,0,1
two-choice,8,1,0.0-3.8-0.,3745.86740508676,,,,,,,1,0,trial,,0,1
two-choice,9,1,0.0-3.9-0.,2435.43724517804,,,,,,,0,1,trial,,1,2
two-choice,10,1,0.0-3.10-0.,2375.53029926494,,,,,,,0,1,trial,,1,3
two-choice,11,1,0.0-3.11-0.,1280.26421985123,,,,,,,0,0,trial,,0,3
two-choice,12,1,0.0-3.12-0.,1415.29382811859,,,,,,,0,0,trial,,0,3
two-choice,13,1,0.0-3.13-0.,1355.62421625946,,,,,,,1,0,trial,,0,3
two-choice,14,1,0.0-3.14-0.,2550.18849601038,,,,,,,0,0,trial,,0,3
two-choice,15,1,0.0-3.15-0.,1936.02765502874,,,,,,,0,0,trial,,0,3
two-choice,16,1,0.0-3.16-0.,1780.05924937315,,,,,,,0,1,trial,,1,4
two-choice,17,1,0.0-3.17-0.,659.961214638315,,,,,,,0,0,trial,,0,4
two-choice,18,1,0.0-3.18-0.,1905.74725344777,,,,,,,1,0,trial,,0,4
two-choice,19,1,0.0-3.19-0.,800.1207516063,,,,,,,1,0,trial,,0,4
two-choice,20,1,0.0-3.20-0.,900.726301013492,,,,,,,0,0,trial,,0,4
two-choice,21,1,0.0-3.21-0.,954.983304371126,,,,,,,0,0,trial,,0,4
two-choice,22,1,0.0-3.22-0.,855.293813394383,,,,,,,0,0,trial,,0,4
two-choice,23,1,0.0-3.23-0.,915.643978281878,,,,,,,0,1,trial,,1,5
two-choice,24,1,0.0-3.24-0.,1925.32787041273,,,,,,,0,1,trial,,1,6
two-choice,25,1,0.0-3.25-0.,1149.99701955821,,,,,,,0,0,trial,,0,6
two-choice,26,1,0.0-3.26-0.,1755.87712891866,,,,,,,0,0,trial,,0,6
two-choice,27,1,0.0-3.27-0.,555.589036783203,,,,,,,1,0,trial,,0,6
two-choice,28,1,0.0-3.28-0.,625.459629227407,,,,,,,1,1,trial,,1,7
two-choice,29,1,0.0-3.29-0.,1545.70511099882,,,,,,,1,1,trial,,1,8
two-choice,30,1,0.0-3.30-0.,840.553131187335,,,,,,,1,0,trial,,0,8
two-choice,31,1,0.0-3.31-0.,1190.57055644225,,,,,,,0,1,trial,,1,9
two-choice,32,1,0.0-3.32-0.,4080.40289022028,,,,,,,1,0,trial,,0,9
two-choice,33,1,0.0-3.33-0.,465.907075442374,,,,,,,0,0,trial,,0,9
two-choice,34,1,0.0-3.34-0.,1920.39870668668,,,,,,,0,1,trial,,1,10
two-choice,35,1,0.0-3.35-0.,1245.08208141197,,,,,,,0,1,trial,,1,11
two-choice,36,1,0.0-3.36-0.,1255.44104108121,,,,,,,0,1,trial,,1,12
two-choice,37,1,0.0-3.37-0.,775.157878408208,,,,,,,0,1,trial,,1,13
two-choice,38,1,0.0-3.38-0.,1089.97158939019,,,,,,,0,0,trial,,0,13
two-choice,39,1,0.0-3.39-0.,1345.63606837764,,,,,,,0,0,trial,,0,13
two-choice,40,1,0.0-3.40-0.,355.728804133832,,,,,,,0,0,trial,,0,13
two-choice,41,1,0.0-3.41-0.,520.160787506029,,,,,,,1,1,trial,,1,14
two-choice,42,1,0.0-3.42-0.,885.480598080903,,,,,,,1,0,trial,,0,14
two-choice,43,1,0.0-3.43-0.,3955.75454889331,,,,,,,0,0,trial,,0,14
two-choice,44,1,0.0-3.44-0.,615.13175338041,,,,,,,1,1,trial,,1,15
two-choice,45,1,0.0-3.45-0.,820.340232574381,,,,,,,1,1,trial,,1,16
two-choice,46,1,0.0-3.46-0.,2011.25453959685,,,,,,,1,1,trial,,1,17
two-choice,47,1,0.0-3.47-0.,1400.28619067743,,,,,,,1,0,trial,,0,17
two-choice,48,1,0.0-3.48-0.,680.576374637894,,,,,,,1,1,trial,,1,18
two-choice,49,1,0.0-3.49-0.,1120.66558876541,,,,,,,1,1,trial,,1,19
two-choice,50,1,0.0-3.50-0.,815.905850380659,,,,,,,1,1,trial,,1,20
two-choice,51,1,0.0-3.51-0.,2350.82779882941,,,,,,,1,1,trial,,1,21
two-choice,52,1,0.0-3.52-0.,529.959141276777,,,,,,,1,1,trial,,1,22
two-choice,53,1,0.0-3.53-0.,665.381137048826,,,,,,,1,0,trial,,0,22
two-choice,54,1,0.0-3.54-0.,2875.54840091616,,,,,,,1,1,trial,,1,23
two-choice,55,1,0.0-3.55-0.,990.416673244908,,,,,,,1,1,trial,,1,24
two-choice,56,1,0.0-3.56-0.,800.201569567434,,,,,,,1,0,trial,,0,24
two-choice,57,1,0.0-3.57-0.,1295.74396577664,,,,,,,1,0,trial,,0,24
two-choice,58,1,0.0-3.58-0.,1230.2583870478,,,,,,,0,0,trial,,0,24
two-choice,59,1,0.0-3.59-0.,2570.44418051373,,,,,,,1,1,trial,,1,25
two-choice,60,1,0.0-3.60-0.,671.854984131642,,,,,,,1,1,trial,,1,26
two-choice,61,1,0.0-3.61-0.,1360.91541498899,,,,,,,1,1,trial,,1,27
two-choice,62,1,0.0-3.62-0.,2955.44736762531,,,,,,,1,0,trial,,0,27
two-choice,63,1,0.0-3.63-0.,1755.82593202125,,,,,,,1,1,trial,,1,28
two-choice,64,1,0.0-3.64-0.,2540.6395442551,,,,,,,1,0,trial,,0,28
two-choice,65,1,0.0-3.65-0.,745.404438930564,,,,,,,1,1,trial,,1,29
two-choice,66,1,0.0-3.66-0.,1795.72805820499,,,,,,,0,0,trial,,0,29
two-choice,67,1,0.0-3.67-0.,1065.04491984379,,,,,,,1,1,trial,,1,30
two-choice,68,1,0.0-3.68-0.,2725.12498439755,,,,,,,0,0,trial,,0,30
two-choice,69,1,0.0-3.69-0.,370.262870448641,,,,,,,0,1,trial,,1,31
two-choice,70,1,0.0-3.70-0.,1219.97256577015,,,,,,,1,0,trial,,0,31
two-choice,71,1,0.0-3.71-0.,3080.12203872204,,,,,,,0,1,trial,,1,32
two-choice,72,1,0.0-3.72-0.,1095.58715694584,,,,,,,0,1,trial,,1,33
two-choice,73,1,0.0-3.73-0.,880.178062827326,,,,,,,0,0,trial,,0,33
two-choice,74,1,0.0-3.74-0.,745.897757587954,,,,,,,1,0,trial,,0,33
two-choice,75,1,0.0-3.75-0.,830.133466632105,,,,,,,1,1,trial,,1,34
two-choice,76,1,0.0-3.76-0.,1244.99321822077,,,,,,,1,0,trial,,0,34
two-choice,77,1,0.0-3.77-0.,2840.50522558391,,,,,,,1,1,trial,,1,35
two-choice,78,1,0.0-3.78-0.,1005.66895876545,,,,,,,1,0,trial,,0,35
two-choice,79,1,0.0-3.79-0.,1845.8384788828,,,,,,,0,1,trial,,1,36
two-choice,80,1,0.0-3.80-0.,524.991945596412,,,,,,,0,1,trial,,1,37
two-choice,81,1,0.0-3.81-0.,725.376946269535,,,,,,,0,1,trial,,1,38
two-choice,82,1,0.0-3.82-0.,975.304813473485,,,,,,,0,1,trial,,1,39
two-choice,83,1,0.0-3.83-0.,740.862909005955,,,,,,,0,1,trial,,1,40
two-choice,84,1,0.0-3.84-0.,1000.16858405434,,,,,,,0,0,trial,,0,40
two-choice,85,1,0.0-3.85-0.,1060.30116206966,,,,,,,0,1,trial,,1,41
two-choice,86,1,0.0-3.86-0.,705.326414899901,,,,,,,0,1,trial,,1,42
two-choice,87,1,0.0-3.87-0.,635.037836385891,,,,,,,0,0,trial,,0,42
two-choice,88,1,0.0-3.88-0.,845.545193878934,,,,,,,0,1,trial,,1,43
two-choice,89,1,0.0-3.89-0.,1165.60256364755,,,,,,,0,0,trial,,0,43
two-choice,90,1,0.0-3.90-0.,1230.42879963759,,,,,,,0,0,trial,,0,43
two-choice,91,1,0.0-3.91-0.,2825.53013460711,,,,,,,1,0,trial,,0,43
two-choice,92,1,0.0-3.92-0.,3415.66719964612,,,,,,,0,1,trial,,1,44
two-choice,93,1,0.0-3.93-0.,780.126536730677,,,,,,,1,0,trial,,0,44
two-choice,94,1,0.0-3.94-0.,545.950490399264,,,,,,,0,1,trial,,1,45
two-choice,95,1,0.0-3.95-0.,3195.80068462528,,,,,,,0,1,trial,,1,46
two-choice,96,1,0.0-3.96-0.,1250.40692382026,,,,,,,0,0,trial,,0,46
two-choice,97,1,0.0-3.97-0.,405.027022818103,,,,,,,1,1,trial,,1,47
two-choice,98,1,0.0-3.98-0.,710.219009430148,,,,,,,1,0,trial,,0,47
two-choice,99,1,0.0-3.99-0.,645.918273017742,,,,,,,1,0,trial,,0,47
two-choice,100,1,0.0-3.100-0.,950.390211655758,,,,,,,0,1,trial,,1,48
two-choice,101,1,0.0-3.101-0.,620.645658695139,,,,,,,0,1,trial,,1,49
two-choice,102,1,0.0-3.102-0.,780.833785305731,,,,,,,0,1,trial,,1,50
two-choice,103,1,0.0-3.103-0.,745.695164194331,,,,,,,0,1,trial,,1,51
two-choice,104,1,0.0-3.104-0.,725.107065518387,,,,,,,0,0,trial,,0,51
two-choice,105,1,0.0-3.105-0.,779.9963504076,,,,,,,0,0,trial,,0,51
two-choice,106,1,0.0-3.106-0.,760.914171696641,,,,,,,1,1,trial,,1,52
two-choice,107,1,0.0-3.107-0.,420.540778199211,,,,,,,1,0,trial,,0,52
two-choice,108,1,0.0-3.108-0.,709.992645890452,,,,,,,1,1,trial,,1,53
two-choice,109,1,0.0-3.109-0.,550.767752225511,,,,,,,1,0,trial,,0,53
two-choice,110,1,0.0-3.110-0.,1555.73677632492,,,,,,,0,0,trial,,0,53
two-choice,111,1,0.0-3.111-0.,580.844097770751,,,,,,,1,1,trial,,1,54
two-choice,112,1,0.0-3.112-0.,395.078735309653,,,,,,,1,1,trial,,1,55
two-choice,113,1,0.0-3.113-0.,790.060927974992,,,,,,,1,1,trial,,1,56
two-choice,114,1,0.0-3.114-0.,890.238252119161,,,,,,,1,0,trial,,0,56
two-choice,115,1,0.0-3.115-0.,1975.32382956706,,,,,,,1,0,trial,,0,56
two-choice,116,1,0.0-3.116-0.,331.847282592207,,,,,,,0,0,trial,,0,56
two-choice,117,1,0.0-3.117-0.,670.88370595593,,,,,,,0,1,trial,,1,57
two-choice,118,1,0.0-3.118-0.,404.968146351166,,,,,,,0,0,trial,,0,57
two-choice,119,1,0.0-3.119-0.,800.288238446228,,,,,,,1,1,trial,,1,58
two-choice,120,1,0.0-3.120-0.,580.834589782171,,,,,,,1,1,trial,,1,59
two-choice,121,1,0.0-3.121-0.,610.09288218338,,,,,,,1,0,trial,,0,59
two-choice,122,1,0.0-3.122-0.,1130.94592478592,,,,,,,1,1,trial,,1,60
two-choice,123,1,0.0-3.123-0.,575.099806534126,,,,,,,1,0,trial,,0,60
two-choice,124,1,0.0-3.124-0.,850.470700650476,,,,,,,0,0,trial,,0,60
two-choice,125,1,0.0-3.125-0.,630.867849569768,,,,,,,1,0,trial,,0,60
two-choice,126,1,0.0-3.126-0.,2735.12410302646,,,,,,,1,1,trial,,1,61
two-choice,127,1,0.0-3.127-0.,535.295685753226,,,,,,,1,1,trial,,1,62
two-choice,128,1,0.0-3.128-0.,575.934315915219,,,,,,,1,1,trial,,1,63
two-choice,129,1,0.0-3.129-0.,755.12307183817,,,,,,,1,0,trial,,0,63
two-choice,130,1,0.0-3.130-0.,760.841398965567,,,,,,,1,1,trial,,1,64
two-choice,131,1,0.0-3.131-0.,690.40873774793,,,,,,,1,0,trial,,0,64
two-choice,132,1,0.0-3.132-0.,1625.82934391685,,,,,,,1,1,trial,,1,65
two-choice,133,1,0.0-3.133-0.,405.089921783656,,,,,,,1,1,trial,,1,66
two-choice,134,1,0.0-3.134-0.,630.339058698155,,,,,,,1,1,trial,,1,67
two-choice,135,1,0.0-3.135-0.,680.544193717651,,,,,,,1,0,trial,,0,67
two-choice,136,1,0.0-3.136-0.,985.534683801234,,,,,,,1,0,trial,,0,67
two-choice,137,1,0.0-3.137-0.,690.431045019068,,,,,,,0,1,trial,,1,68
