trial_type,trial_index,time_elapsed,internal_node_id,rt,responses,partNum,view_history,key_press,images,key_choice,image_i_chosen,feedback_correct,phase,correct_stim,correct,score
pavlovia,0,5,0.0-0.0,,,,,,,,,,,,,
survey-text,1,94144,0.0-1.0,94138,{"Q0":"36"},"722",,,,,,,,,,
instructions,2,127741,0.0-2.0-0.0,33595,,,"[{""page_index"":0,""viewing_time"":15216},{""page_index"":1,""viewing_time"":8673},{""page_index"":2,""viewing_time"":7402},{""page_index"":3,""viewing_time"":2303}]",,,,,,,,,
two-choice,3,1,0.0-3.3-0.,527.121956925839,,,,,,,0,1,trial,,1,1
two-choice,4,1,0.0-3.4-0.,987.328707647976,,,,,,,0,1,trial,,1,2
two-choice,5,1,0.0-3.5-0.,581.581406062469,,,,,,,0,0,trial,,0,2
two-choice,6,1,0.0-3.6-0.,675.846028199885,,,,,,,0,0,trial,,0,2
two-choice,7,1,0.0-3.7-0.,1031.75218892284,,,,,,,0,0,trial,,0,2
two-choice,8,1,0.0-3.8-0.,786.007422953844,,,,,,,1,1,trial,,1,3
two-choice,9,1,0.0-3.9-0.,771.262586116791,,,,,,,1,0,trial,,0,3
two-choice,10,1,0.0-3.10-0.,757.580029487144,,,,,,,1,0,trial,,0,3
two-choice,11,1,0.0-3.11-0.,2159.13315030048,,,,,,,1,0,trial,,0,3
two-choice,12,1,0.0-3.12-0.,525.730940280482,,,,,,,0,1,trial,,1,4
two-choice,13,1,0.0-3.13-0.,566.620732133742,,,,,,,0,0,trial,,0,4
two-choice,14,1,0.0-3.14-0.,393.386633484624,,,,,,,0,1,trial,,1,5
two-choice,15,1,0.0-3.15-0.,620.68805214949,,,,,,,0,1,trial,,1,6
two-choice,16,1,0.0-3.16-0.,641.5457551484,,,,,,,0,0,trial,,0,6
two-choice,17,1,0.0-3.17-0.,581.726001750212,,,,,,,0,1,trial,,1,7
two-choice,18,1,0.0-3.18-0.,515.943109581713,,,,,,,0,1,trial,,1,8
two-choice,19,1,0.0-3.19-0.,545.964980032295,,,,,,,0,0,trial,,0,8
two-choice,20,1,0.0-3.20-0.,531.038417480886,,,,,,,0,0,trial,,0,8
two-choice,21,1,0.0-3.21-0.,572.230984806083,,,,,,,0,1,trial,,1,9
two-choice,22,1,0.0-3.22-0.,452.028490486555,,,,,,,0,1,trial,,1,10
two-choice,23,1,0.0-3.23-0.,445.612546929624,,,,,,,0,1,trial,,1,11
two-choice,24,1,0.0-3.24-0.,525.81727510551,,,,,,,0,0,trial,,0,11
two-choice,25,1,0.0-3.25-0.,420.666317513678,,,,,,,0,1,trial,,1,12
two-choice,26,1,0.0-3.26-0.,377.472654392477,,,,,,,0,1,trial,,1,13
two-choice,27,1,0.0-3.27-0.,486.349592567421,,,,,,,0,1,trial,,1,14
two-choice,28,1,0.0-3.28-0.,575.587174738757,,,,,,,0,0,trial,,0,14
two-choice,29,1,0.0-3.29-0.,391.365614312235,,,,,,,0,0,trial,,0,14
two-choice,30,1,0.0-3.30-0.,462.519074440934,,,,,,,0,1,trial,,1,15
two-choice,31,1,0.0-3.31-0.,512.10151280975,,,,,,,0,1,trial,,1,16
two-choice,32,1,0.0-3.32-0.,2536.68217774248,,,,,,,1,0,trial,,0,16
two-choice,33,1,0.0-3.33-0.,481.038794794586,,,,,,,0,1,trial,,1,17
two-choice,34,1,0.0-3.34-0.,564.270674658474,,,,,,,0,1,trial,,1,18
two-choice,35,1,0.0-3.35-0.,522.058088798076,,,,,,,0,1,trial,,1,19
two-choice,36,1,0.0-3.36-0.,427.987267146818,,,,,,,0,1,trial,,1,20
two-choice,37,1,0.0-3.37-0.,466.671295289416,,,,,,,0,1,trial,,1,21
two-choice,38,1,0.0-3.38-0.,437.694498570636,,,,,,,0,0,trial,,0,21
two-choice,39,1,0.0-3.39-0.,371.85394926928,,,,,,,0,0,trial,,0,21
two-choice,40,1,0.0-3.40-0.,365.668030630331,,,,,,,0,0,trial,,0,21
two-choice,41,1,0.0-3.41-0.,556.571180175524,,,,,,,0,1,trial,,1,22
two-choice,42,1,0.0-3.42-0.,596.09621798154,,,,,,,0,0,trial,,0,22
two-choice,43,1,0.0-3.43-0.,571.30092359148,,,,,,,0,0,trial,,0,22
two-choice,44,1,0.0-3.44-0.,1297.14778193738,,,,,,,1,1,trial,,1,23
two-choice,45,1,0.0-3.45-0.,446.780481725,,,,,,,1,1,trial,,1,24
two-choice,46,1,0.0-3.46-0.,406.373379868455,,,,,,,1,1,trial,,1,25
two-choice,47,1,0.0-3.47-0.,391.838946321514,,,,,,,1,1,trial,,1,26
two-choice,48,1,0.0-3.48-0.,518.839853466488,,,,,,,1,1,trial,,1,27
two-choice,49,1,0.0-3.49-0.,407.896313699894,,,,,,,1,1,trial,,1,28
two-choice,50,1,0.0-3.50-0.,432.464903860819,,,,,,,1,0,trial,,0,28
two-choice,51,1,0.0-3.51-0.,486.602559569292,,,,,,,1,0,trial,,0,28
two-choice,52,1,0.0-3.52-0.,390.764289419167,,,,,,,1,0,trial,,0,28
two-choice,53,1,0.0-3.53-0.,460.956595663447,,,,,,,1,1,trial,,1,29
two-choice,54,1,0.0-3.54-0.,462.463530362584,,,,,,,1,1,trial,,1,30
two-choice,55,1,0.0-3.55-0.,413.015725906007,,,,,,,1,1,trial,,1,31
two-choice,56,1,0.0-3.56-0.,433.842336351518,,,,,,,1,0,trial,,0,31
two-choice,57,1,0.0-3.57-0.,391.936752188485,,,,,,,1,1,trial,,1,32
two-choice,58,1,0.0-3.58-0.,598.251267510932,,,,,,,1,1,trial,,1,33
two-choice,59,1,0.0-3.59-0.,455.77016833704,,,,,,,1,1,trial,,1,34
two-choice,60,1,0.0-3.60-0.,371.162667113822,,,,,,,1,1,trial,,1,35
two-choice,61,1,0.0-3.61-0.,398.009167809505,,,,,,,1,1,trial,,1,36
two-choice,62,1,0.0-3.62-0.,406.572010309901,,,,,,,1,0,trial,,0,36
two-choice,63,1,0.0-3.63-0.,381.181126460433,,,,,,,1,1,trial,,1,37
two-choice,64,1,0.0-3.64-0.,442.298920650501,,,,,,,1,0,trial,,0,37
two-choice,65,1,0.0-3.65-0.,422.466669755522,,,,,,,1,1,trial,,1,38
two-choice,66,1,0.0-3.66-0.,426.342981576454,,,,,,,1,0,trial,,0,38
two-choice,67,1,0.0-3.67-0.,426.708487910219,,,,,,,1,0,trial,,0,38
two-choice,68,1,0.0-3.68-0.,406.367644376587,,,,,,,1,0,trial,,0,38
two-choice,69,1,0.0-3.69-0.,1207.42871722905,,,,,,,0,1,trial,,1,39
two-choice,70,1,0.0-3.70-0.,406.131883908529,,,,,,,0,1,trial,,1,40
two-choice,71,1,0.0-3.71-0.,557.626819354482,,,,,,,0,1,trial,,1,41
two-choice,72,1,0.0-3.72-0.,436.04774546111,,,,,,,0,0,trial,,0,41
two-choice,73,1,0.0-3.73-0.,385.727589542512,,,,,,,0,0,trial,,0,41
two-choice,74,1,0.0-3.74-0.,1458.88335292693,,,,,,,0,1,trial,,1,42
two-choice,75,1,0.0-3.75-0.,376.176726771519,,,,,,,0,0,trial,,0,42
two-choice,76,1,0.0-3.76-0.,658.682609442621,,,,,,,1,0,trial,,0,42
two-choice,77,1,0.0-3.77-0.,412.600654759444,,,,,,,1,0,trial,,0,42
two-choice,78,1,0.0-3.78-0.,557.103980565444,,,,,,,0,1,trial,,1,43
two-choice,79,1,0.0-3.79-0.,578.559726767708,,,,,,,0,0,trial,,0,43
two-choice,80,1,0.0-3.80-0.,839.672048517969,,,,,,,0,1,trial,,1,44
two-choice,81,1,0.0-3.81-0.,501.177141792141,,,,,,,0,0,trial,,0,44
two-choice,82,1,0.0-3.82-0.,671.337600739207,,,,,,,0,1,trial,,1,45
two-choice,83,1,0.0-3.83-0.,488.486227928661,,,,,,,0,0,trial,,0,45
two-choice,84,1,0.0-3.84-0.,751.42701464938,,,,,,,0,1,trial,,1,46
two-choice,85,1,0.0-3.85-0.,870.856420136988,,,,,,,0,1,trial,,1,47
two-choice,86,1,0.0-3.86-0.,627.160747244488,,,,,,,0,1,trial,,1,48
two-choice,87,1,0.0-3.87-0.,983.404700411484,,,,,,,0,1,trial,,1,49
two-choice,88,1,0.0-3.88-0.,730.589838756714,,,,,,,0,1,trial,,1,50
two-choice,89,1,0.0-3.89-0.,560.85712951608,,,,,,,0,1,trial,,1,51
two-choice,90,1,0.0-3.90-0.,546.325714618433,,,,,,,0,0,trial,,0,51
two-choice,91,1,0.0-3.91-0.,722.941662126686,,,,,,,0,1,trial,,1,52
two-choice,92,1,0.0-3.92-0.,770.852948597167,,,,,,,0,1,trial,,1,53
two-choice,93,1,0.0-3.93-0.,571.731390140485,,,,,,,0,1,trial,,1,54
two-choice,94,1,0.0-3.94-0.,527.4808803224,,,,,,,0,0,trial,,0,54
two-choice,95,1,0.0-3.95-0.,446.430010721087,,,,,,,0,1,trial,,1,55
two-choice,96,1,0.0-3.96-0.,486.998311011121,,,,,,,0,1,trial,,1,56
two-choice,97,1,0.0-3.97-0.,476.074845646508,,,,,,,0,1,trial,,1,57
two-choice,98,1,0.0-3.98-0.,446.07772846939,,,,,,,0,1,trial,,1,58
two-choice,99,1,0.0-3.99-0.,397.137669322547,,,,,,,0,0,trial,,0,58
two-choice,100,1,0.0-3.100-0.,435.701251379214,,,,,,,0,1,trial,,1,59
two-choice,101,1,0.0-3.101-0.,476.849745726213,,,,,,,0,0,trial,,0,59
two-choice,102,1,0.0-3.102-0.,440.695991273969,,,,,,,0,1,trial,,1,60
two-choice,103,1,0.0-3.103-0.,471.875834860839,,,,,,,0,0,trial,,0,60
two-choice,104,1,0.0-3.104-0.,422.700317110866,,,,,,,0,1,trial,,1,61
two-choice,105,1,0.0-3.105-0.,515.649088309146,,,,,,,0,0,trial,,0,61
two-choice,106,1,0.0-3.106-0.,470.491761225276,,,,,,,0,0,trial,,0,61
two-choice,107,1,0.0-3.107-0.,481.370549881831,,,,,,,0,1,trial,,1,62
two-choice,108,1,0.0-3.108-0.,637.562883261126,,,,,,,0,0,trial,,0,62
two-choice,109,1,0.0-3.109-0.,375.748977065086,,,,,,,0,1,trial,,1,63
two-choice,110,1,0.0-3.110-0.,405.613573268056,,,,,,,0,0,trial,,0,63
two-choice,111,1,0.0-3.111-0.,546.136140357703,,,,,,,0,0,trial,,0,63
two-choice,112,1,0.0-3.112-0.,804.595064138994,,,,,,,0,1,trial,,1,64
two-choice,113,1,0.0-3.113-0.,456.249839626253,,,,,,,0,1,trial,,1,65
two-choice,114,1,0.0-3.114-0.,485.710533859674,,,,,,,0,0,trial,,0,65
two-choice,115,1,0.0-3.115-0.,565.936392988078,,,,,,,0,1,trial,,1,66
two-choice,116,1,0.0-3.116-0.,580.732547736261,,,,,,,0,0,trial,,0,66
two-choice,117,1,0.0-3.117-0.,371.006600384135,,,,,,,0,0,trial,,0,66
two-choice,118,1,0.0-3.118-0.,421.777198847849,,,,,,,0,0,trial,,0,66
two-choice,119,1,0.0-3.119-0.,506.730944849551,,,,,,,1,1,trial,,1,67
two-choice,120,1,0.0-3.120-0.,376.24977924861,,,,,,,1,1,trial,,1,68
two-choice,121,1,0.0-3.121-0.,373.251305194572,,,,,,,1,0,trial,,0,68
two-choice,122,1,0.0-3.122-0.,396.001732733566,,,,,,,1,1,trial,,1,69
two-choice,123,1,0.0-3.123-0.,341.11906203907,,,,,,,1,1,trial,,1,70
two-choice,124,1,0.0-3.124-0.,546.220965741668,,,,,,,1,1,trial,,1,71
two-choice,125,1,0.0-3.125-0.,442.697087128181,,,,,,,1,0,trial,,0,71
two-choice,126,1,0.0-3.126-0.,342.582527489867,,,,,,,1,1,trial,,1,72
two-choice,127,1,0.0-3.127-0.,407.745378790423,,,,,,,1,0,trial,,0,72
two-choice,128,1,0.0-3.128-0.,367.339484451804,,,,,,,1,1,trial,,1,73
two-choice,129,1,0.0-3.129-0.,386.243485263549,,,,,,,1,1,trial,,1,74
two-choice,130,1,0.0-3.130-0.,441.340181743726,,,,,,,1,0,trial,,0,74
two-choice,131,1,0.0-3.131-0.,365.526151726954,,,,,,,1,0,trial,,0,74
two-choice,132,1,0.0-3.132-0.,466.399008699227,,,,,,,1,1,trial,,1,75
two-choice,133,1,0.0-3.133-0.,711.253862071317,,,,,,,1,0,trial,,0,75
two-choice,134,1,0.0-3.134-0.,390.926091640722,,,,,,,1,1,trial,,1,76
two-choice,135,1,0.0-3.135-0.,415.954127849545,,,,,,,1,1,trial,,1,77
two-choice,136,1,0.0-3.136-0.,451.896573358681,,,,,,,1,1,trial,,1,78
two-choice,137,1,0.0-3.137-0.,456.32379775634,,,,,,,1,1,trial,,1,79
