trial_type,trial_index,time_elapsed,internal_node_id,rt,responses,partNum,view_history,key_press,images,key_choice,image_i_chosen,feedback_correct,phase,correct_stim,correct,score
pavlovia,0,5,0.0-0.0,,,,,,,,,,,,,
survey-text,1,94144,0.0-1.0,94138,{"Q0":"23"},"751",,,,,,,,,,
instructions,2,127741,0.0-2.0-0.0,33595,,,"[{""page_index"":0,""viewing_time"":15216},{""page_index"":1,""viewing_time"":8673},{""page_index"":2,""viewing_time"":7402},{""page_index"":3,""viewing_time"":2303}]",,,,,,,,,
two-choice,3,1,0.0-3.3-0.,1174.70901506022,,,,,,,0,1,trial,,1,1
two-choice,4,1,0.0-3.4-0.,729.825508780777,,,,,,,0,0,trial,,0,1
two-choice,5,1,0.0-3.5-0.,480.82644212991,,,,,,,0,1,trial,,1,2
two-choice,6,1,0.0-3.6-0.,499.907904304564,,,,,,,0,1,trial,,1,3
two-choice,7,1,0.0-3.7-0.,475.2656375058,,,,,,,0,1,trial,,1,4
two-choice,8,1,0.0-3.8-0.,545.41537957266,,,,,,,0,1,trial,,1,5
two-choice,9,1,0.0-3.9-0.,544.81233889237,,,,,,,0,1,trial,,1,6
two-choice,10,1,0.0-3.10-0.,461.187274195254,,,,,,,0,1,trial,,1,7
two-choice,11,1,0.0-3.11-0.,490.937281865627,,,,,,,0,1,trial,,1,8
two-choice,12,1,0.0-3.12-0.,411.251513287425,,,,,,,0,1,trial,,1,9
two-choice,13,1,0.0-3.13-0.,505.117719992995,,,,,,,0,0,trial,,0,9
two-choice,14,1,0.0-3.14-0.,469.868209213018,,,,,,,0,1,trial,,1,10
two-choice,15,1,0.0-3.15-0.,420.457079540938,,,,,,,0,0,trial,,0,10
two-choice,16,1,0.0-3.16-0.,500.551432836801,,,,,,,0,0,trial,,0,10
two-choice,17,1,0.0-3.17-0.,445.025498978794,,,,,,,1,0,trial,,0,10
two-choice,18,1,0.0-3.18-0.,370.456309057772,,,,,,,1,0,trial,,0,10
two-choice,19,1,0.0-3.19-0.,360.456383787096,,,,,,,1,0,trial,,0,10
two-choice,20,1,0.0-3.20-0.,350.163348484784,,,,,,,0,0,trial,,0,10
two-choice,21,1,0.0-3.21-0.,519.623200874776,,,,,,,0,0,trial,,0,10
two-choice,22,1,0.0-3.22-0.,405.334586743265,,,,,,,0,0,trial,,0,10
two-choice,23,1,0.0-3.23-0.,340.092141181231,,,,,,,0,0,trial,,0,10
two-choice,24,1,0.0-3.24-0.,501.454710960388,,,,,,,1,0,trial,,0,10
two-choice,25,1,0.0-3.25-0.,354.889875743538,,,,,,,1,1,trial,,1,11
two-choice,26,1,0.0-3.26-0.,364.596692379564,,,,,,,1,1,trial,,1,12
two-choice,27,1,0.0-3.27-0.,400.296701584011,,,,,,,1,1,trial,,1,13
two-choice,28,1,0.0-3.28-0.,415.751365944743,,,,,,,1,1,trial,,1,14
two-choice,29,1,0.0-3.29-0.,345.415436662734,,,,,,,1,1,trial,,1,15
two-choice,30,1,0.0-3.30-0.,379.836087115109,,,,,,,1,1,trial,,1,16
two-choice,31,1,0.0-3.31-0.,359.922627918422,,,,,,,1,0,trial,,0,16
two-choice,32,1,0.0-3.32-0.,344.658713322133,,,,,,,1,1,trial,,1,17
two-choice,33,1,0.0-3.33-0.,360.071748960763,,,,,,,1,1,trial,,1,18
two-choice,34,1,0.0-3.34-0.,414.757417980582,,,,,,,1,1,trial,,1,19
two-choice,35,1,0.0-3.35-0.,420.57369556278,,,,,,,1,0,trial,,0,19
two-choice,36,1,0.0-3.36-0.,504.654390737414,,,,,,,1,0,trial,,0,19
two-choice,37,1,0.0-3.37-0.,385.30536647886,,,,,,,1,0,trial,,0,19
two-choice,38,1,0.0-3.38-0.,670.426143333316,,,,,,,1,0,trial,,0,19
two-choice,39,1,0.0-3.39-0.,525.494792964309,,,,,,,0,1,trial,,1,20
two-choice,40,1,0.0-3.40-0.,325.563849881291,,,,,,,0,0,trial,,0,20
two-choice,41,1,0.0-3.41-0.,400.561298243701,,,,,,,0,1,trial,,1,21
two-choice,42,1,0.0-3.42-0.,419.970939867198,,,,,,,0,1,trial,,1,22
two-choice,43,1,0.0-3.43-0.,450.045420322567,,,,,,,0,1,trial,,1,23
two-choice,44,1,0.0-3.44-0.,425.422541797161,,,,,,,0,0,trial,,0,23
two-choice,45,1,0.0-3.45-0.,285.517100710422,,,,,,,0,0,trial,,0,23
two-choice,46,1,0.0-3.46-0.,370.587752200663,,,,,,,1,1,trial,,1,24
two-choice,47,1,0.0-3.47-0.,345.311935991049,,,,,,,1,1,trial,,1,25
two-choice,48,1,0.0-3.48-0.,344.735982362181,,,,,,,1,0,trial,,0,25
two-choice,49,1,0.0-3.49-0.,320.092004723847,,,,,,,1,0,trial,,0,25
two-choice,50,1,0.0-3.50-0.,390.18671726808,,,,,,,0,1,trial,,1,26
two-choice,51,1,0.0-3.51-0.,370.549260638654,,,,,,,0,1,trial,,1,27
two-choice,52,1,0.0-3.52-0.,360.311539843678,,,,,,,0,0,trial,,0,27
two-choice,53,1,0.0-3.53-0.,290.014387108386,,,,,,,0,1,trial,,1,28
two-choice,54,1,0.0-3.54-0.,370.357085485011,,,,,,,0,0,trial,,0,28
two-choice,55,1,0.0-3.55-0.,280.519989319146,,,,,,,0,0,trial,,0,28
two-choice,56,1,0.0-3.56-0.,515.538490843028,,,,,,,1,1,trial,,1,29
two-choice,57,1,0.0-3.57-0.,425.845230929554,,,,,,,1,1,trial,,1,30
two-choice,58,1,0.0-3.58-0.,350.381754338741,,,,,,,1,1,trial,,1,31
two-choice,59,1,0.0-3.59-0.,504.745060577989,,,,,,,1,1,trial,,1,32
two-choice,60,1,0.0-3.60-0.,385.500677861273,,,,,,,1,1,trial,,1,33
two-choice,61,1,0.0-3.61-0.,375.43403217569,,,,,,,1,0,trial,,0,33
two-choice,62,1,0.0-3.62-0.,444.64457128197,,,,,,,1,0,trial,,0,33
two-choice,63,1,0.0-3.63-0.,845.05047602579,,,,,,,0,0,trial,,0,33
two-choice,64,1,0.0-3.64-0.,335.524999070913,,,,,,,1,0,trial,,0,33
two-choice,65,1,0.0-3.65-0.,335.450866259634,,,,,,,0,0,trial,,0,33
two-choice,66,1,0.0-3.66-0.,434.601876419038,,,,,,,0,1,trial,,1,34
two-choice,67,1,0.0-3.67-0.,454.62311245501,,,,,,,0,0,trial,,0,34
two-choice,68,1,0.0-3.68-0.,425.406004302204,,,,,,,1,1,trial,,1,35
two-choice,69,1,0.0-3.69-0.,340.402357745916,,,,,,,1,1,trial,,1,36
two-choice,70,1,0.0-3.70-0.,460.816611070186,,,,,,,1,1,trial,,1,37
two-choice,71,1,0.0-3.71-0.,460.574824828655,,,,,,,1,0,trial,,0,37
two-choice,72,1,0.0-3.72-0.,450.311727821827,,,,,,,1,0,trial,,0,37
two-choice,73,1,0.0-3.73-0.,354.731916449964,,,,,,,1,0,trial,,0,37
two-choice,74,1,0.0-3.74-0.,345.419428311288,,,,,,,0,1,trial,,1,38
two-choice,75,1,0.0-3.75-0.,355.813968461007,,,,,,,0,1,trial,,1,39
two-choice,76,1,0.0-3.76-0.,855.565053410828,,,,,,,0,1,trial,,1,40
two-choice,77,1,0.0-3.77-0.,405.313201714307,,,,,,,0,0,trial,,0,40
two-choice,78,1,0.0-3.78-0.,425.01709330827,,,,,,,1,1,trial,,1,41
two-choice,79,1,0.0-3.79-0.,355.079484637827,,,,,,,1,1,trial,,1,42
two-choice,80,1,0.0-3.80-0.,659.751609899104,,,,,,,1,0,trial,,0,42
two-choice,81,1,0.0-3.81-0.,355.569615028799,,,,,,,0,1,trial,,1,43
two-choice,82,1,0.0-3.82-0.,470.276794396341,,,,,,,0,1,trial,,1,44
two-choice,83,1,0.0-3.83-0.,375.392118934542,,,,,,,0,0,trial,,0,44
two-choice,84,1,0.0-3.84-0.,435.40650093928,,,,,,,1,0,trial,,0,44
two-choice,85,1,0.0-3.85-0.,385.48528123647,,,,,,,1,1,trial,,1,45
two-choice,86,1,0.0-3.86-0.,390.5522483401,,,,,,,1,0,trial,,0,45
two-choice,87,1,0.0-3.87-0.,485.010946169496,,,,,,,1,1,trial,,1,46
two-choice,88,1,0.0-3.88-0.,495.086430106312,,,,,,,1,1,trial,,1,47
two-choice,89,1,0.0-3.89-0.,575.4334051162,,,,,,,1,0,trial,,0,47
two-choice,90,1,0.0-3.90-0.,690.471329726279,,,,,,,0,1,trial,,1,48
two-choice,91,1,0.0-3.91-0.,629.938019439578,,,,,,,0,1,trial,,1,49
two-choice,92,1,0.0-3.92-0.,394.956298638135,,,,,,,0,0,trial,,0,49
two-choice,93,1,0.0-3.93-0.,380.937277339399,,,,,,,0,0,trial,,0,49
two-choice,94,1,0.0-3.94-0.,940.466055180877,,,,,,,1,1,trial,,1,50
two-choice,95,1,0.0-3.95-0.,444.875522516668,,,,,,,0,1,trial,,1,51
two-choice,96,1,0.0-3.96-0.,735.252019483596,,,,,,,1,1,trial,,1,52
two-choice,97,1,0.0-3.97-0.,1000.33017573878,,,,,,,0,0,trial,,0,52
two-choice,98,1,0.0-3.98-0.,389.773285016418,,,,,,,1,1,trial,,1,53
two-choice,99,1,0.0-3.99-0.,480.131591204554,,,,,,,1,1,trial,,1,54
two-choice,100,1,0.0-3.100-0.,350.240902975202,,,,,,,1,1,trial,,1,55
two-choice,101,1,0.0-3.101-0.,629.678269848228,,,,,,,1,0,trial,,0,55
two-choice,102,1,0.0-3.102-0.,599.736942909658,,,,,,,1,1,trial,,1,56
two-choice,103,1,0.0-3.103-0.,355.148769915104,,,,,,,1,0,trial,,0,56
two-choice,104,1,0.0-3.104-0.,349.883925169706,,,,,,,0,0,trial,,0,56
two-choice,105,1,0.0-3.105-0.,345.272873993963,,,,,,,0,1,trial,,1,57
two-choice,106,1,0.0-3.106-0.,409.667070023715,,,,,,,0,1,trial,,1,58
two-choice,107,1,0.0-3.107-0.,510.302159003913,,,,,,,0,1,trial,,1,59
two-choice,108,1,0.0-3.108-0.,455.097276251763,,,,,,,0,1,trial,,1,60
two-choice,109,1,0.0-3.109-0.,399.871293921024,,,,,,,0,1,trial,,1,61
two-choice,110,1,0.0-3.110-0.,390.283660031855,,,,,,,0,1,trial,,1,62
two-choice,111,1,0.0-3.111-0.,564.686450175941,,,,,,,0,0,trial,,0,62
two-choice,112,1,0.0-3.112-0.,515.287580434233,,,,,,,1,1,trial,,1,63
two-choice,113,1,0.0-3.113-0.,550.117956474423,,,,,,,1,0,trial,,0,63
two-choice,114,1,0.0-3.114-0.,411.541771143675,,,,,,,0,0,trial,,0,63
two-choice,115,1,0.0-3.115-0.,455.281752627343,,,,,,,1,0,trial,,0,63
two-choice,116,1,0.0-3.116-0.,485.009520314634,,,,,,,1,0,trial,,0,63
two-choice,117,1,0.0-3.117-0.,725.078166928142,,,,,,,0,1,trial,,1,64
two-choice,118,1,0.0-3.118-0.,331.167424097657,,,,,,,0,0,trial,,0,64
two-choice,119,1,0.0-3.119-0.,435.198359191418,,,,,,,0,1,trial,,1,65
two-choice,120,1,0.0-3.120-0.,390.822535846382,,,,,,,0,0,trial,,0,65
two-choice,121,1,0.0-3.121-0.,580.581633374095,,,,,,,1,0,trial,,0,65
two-choice,122,1,0.0-3.122-0.,349.778143689036,,,,,,,1,1,trial,,1,66
two-choice,123,1,0.0-3.123-0.,506.764445919544,,,,,,,1,1,trial,,1,67
two-choice,124,1,0.0-3.124-0.,665.852442849427,,,,,,,1,1,trial,,1,68
two-choice,125,1,0.0-3.125-0.,395.214052405208,,,,,,,1,1,trial,,1,69
two-choice,126,1,0.0-3.126-0.,404.715863987803,,,,,,,1,1,trial,,1,70
two-choice,127,1,0.0-3.127-0.,560.92929141596,,,,,,,1,0,trial,,0,70
two-choice,128,1,0.0-3.128-0.,485.140393022448,,,,,,,1,0,trial,,0,70
two-choice,129,1,0.0-3.129-0.,385.833692736924,,,,,,,1,1,trial,,1,71
two-choice,130,1,0.0-3.130-0.,535.303969401866,,,,,,,1,0,trial,,0,71
two-choice,131,1,0.0-3.131-0.,470.356344245374,,,,,,,0,1,trial,,1,72
two-choice,132,1,0.0-3.132-0.,385.376363061368,,,,,,,0,0,trial,,0,72
two-choice,133,1,0.0-3.133-0.,591.489113867283,,,,,,,0,0,trial,,0,72
two-choice,134,1,0.0-3.134-0.,620.884710457176,,,,,,,1,1,trial,,1,73
two-choice,135,1,0.0-3.135-0.,399.980782531202,,,,,,,1,0,trial,,0,73
two-choice,136,1,0.0-3.136-0.,715.354242827743,,,,,,,1,1,trial,,1,74
two-choice,137,1,0.0-3.137-0.,356.163817457855,,,,,,,1,1,trial,,1,75
