"trial_type","trial_index","time_elapsed","internal_node_id","rt","responses","partNum","view_history","key_press","images","key_choice","image_i_chosen","feedback_correct","phase","correct_stim","correct","score"
"pavlovia","0","5","0.0-0.0","","","","","","","","","","","","",""
"survey-text","1","33578","0.0-1.0","33571","{""Q0"":""1""}","""1""","","","","","","","","","",""
"instructions","2","96630","0.0-2.0-0.0","63051","","","[{""page_index"":0,""viewing_time"":3282},{""page_index"":1,""viewing_time"":38177},{""page_index"":2,""viewing_time"":16228},{""page_index"":3,""viewing_time"":5362}]","","","","","","","","",""
"two-choice","3","99709","0.0-3.0-0.0","1565","","","","2","images/slot1_up.png,images/slot2_up.png","1","1","1","trial","1","1","1"
"two-choice","4","103143","0.0-3.1-0.1","1152","","","","0","images/slot2_up.png,images/slot1_up.png","0","1","1","trial","1","1","2"
"two-choice","5","106231","0.0-3.2-0.2","805","","","","0","images/slot1_up.png,images/slot2_up.png","0","0","1","trial","0","1","3"
"two-choice","6","109029","0.0-3.3-0.3","516","","","","2","images/slot2_up.png,images/slot1_up.png","1","0","1","trial","0","1","4"
"two-choice","7","111863","0.0-3.4-0.4","549","","","","0","images/slot1_up.png,images/slot2_up.png","0","0","1","trial","0","1","5"
"two-choice","8","114679","0.0-3.5-0.5","540","","","","2","images/slot2_up.png,images/slot1_up.png","1","0","1","trial","0","1","6"
"two-choice","9","117420","0.0-3.6-0.6","468","","","","0","images/slot2_up.png,images/slot1_up.png","0","1","0","trial","0","0","6"
"two-choice","10","120236","0.0-3.7-0.7","537","","","","2","images/slot1_up.png,images/slot2_up.png","1","1","0","trial","0","0","6"
"two-choice","11","123095","0.0-3.8-0.8","577","","","","2","images/slot2_up.png,images/slot1_up.png","1","0","1","trial","0","1","7"
"two-choice","12","125903","0.0-3.9-0.9","525","","","","2","images/slot1_up.png,images/slot2_up.png","1","1","0","trial","0","0","7"
"two-choice","13","128582","0.0-3.10-0.10","404","","","","0","images/slot1_up.png,images/slot2_up.png","0","0","1","trial","0","1","8"
"two-choice","14","131915","0.0-3.11-0.11","1057","","","","0","images/slot1_up.png,images/slot2_up.png","0","0","1","trial","0","1","9"
"two-choice","15","134663","0.0-3.12-0.12","467","","","","2","images/slot2_up.png,images/slot1_up.png","1","0","1","trial","0","1","10"
"two-choice","16","137325","0.0-3.13-0.13","397","","","","2","images/slot2_up.png,images/slot1_up.png","1","0","1","trial","0","1","11"
"two-choice","17","140011","0.0-3.14-0.14","405","","","","0","images/slot1_up.png,images/slot2_up.png","0","0","1","trial","0","1","12"
"two-choice","18","142743","0.0-3.15-0.15","452","","","","0","images/slot1_up.png,images/slot2_up.png","0","0","1","trial","0","1","13"
"two-choice","19","145525","0.0-3.16-0.16","510","","","","0","images/slot1_up.png,images/slot2_up.png","0","0","0","trial","1","0","13"
"two-choice","20","148315","0.0-3.17-0.17","512","","","","0","images/slot1_up.png,images/slot2_up.png","0","0","0","trial","1","0","13"
"two-choice","21","151639","0.0-3.18-0.18","1058","","","","2","images/slot2_up.png,images/slot1_up.png","1","0","1","trial","0","1","14"
"two-choice","22","154711","0.0-3.19-0.19","793","","","","0","images/slot1_up.png,images/slot2_up.png","0","0","0","trial","1","0","14"
"two-choice","23","157534","0.0-3.20-0.20","542","","","","0","images/slot2_up.png,images/slot1_up.png","0","1","1","trial","1","1","15"
"two-choice","24","160315","0.0-3.21-0.21","506","","","","2","images/slot1_up.png,images/slot2_up.png","1","1","0","trial","0","0","15"
"two-choice","25","163109","0.0-3.22-0.22","522","","","","0","images/slot1_up.png,images/slot2_up.png","0","0","0","trial","1","0","15"
"two-choice","26","165879","0.0-3.23-0.23","482","","","","2","images/slot1_up.png,images/slot2_up.png","1","1","1","trial","1","1","16"
"two-choice","27","168789","0.0-3.24-0.24","630","","","","0","images/slot1_up.png,images/slot2_up.png","0","0","0","trial","1","0","16"
"two-choice","28","171659","0.0-3.25-0.25","593","","","","0","images/slot2_up.png,images/slot1_up.png","0","1","1","trial","1","1","17"
"two-choice","29","174532","0.0-3.26-0.26","601","","","","0","images/slot2_up.png,images/slot1_up.png","0","1","1","trial","1","1","18"
"two-choice","30","177375","0.0-3.27-0.27","554","","","","0","images/slot2_up.png,images/slot1_up.png","0","1","0","trial","0","0","18"
"two-choice","31","180111","0.0-3.28-0.28","462","","","","0","images/slot1_up.png,images/slot2_up.png","0","0","0","trial","1","0","18"
"two-choice","32","182852","0.0-3.29-0.29","459","","","","0","images/slot2_up.png,images/slot1_up.png","0","1","1","trial","1","1","19"
"two-choice","33","185627","0.0-3.30-0.30","511","","","","0","images/slot2_up.png,images/slot1_up.png","0","1","0","trial","0","0","19"
"two-choice","34","188325","0.0-3.31-0.31","417","","","","0","images/slot1_up.png,images/slot2_up.png","0","0","0","trial","1","0","19"
"two-choice","35","191303","0.0-3.32-0.32","691","","","","2","images/slot1_up.png,images/slot2_up.png","1","1","0","trial","0","0","19"
"two-choice","36","194103","0.0-3.33-0.33","516","","","","0","images/slot1_up.png,images/slot2_up.png","0","0","0","trial","1","0","19"
"two-choice","37","196871","0.0-3.34-0.34","489","","","","2","images/slot1_up.png,images/slot2_up.png","1","1","0","trial","0","0","19"
"two-choice","38","199599","0.0-3.35-0.35","449","","","","2","images/slot2_up.png,images/slot1_up.png","1","0","0","trial","1","0","19"
"two-choice","39","202415","0.0-3.36-0.36","532","","","","2","images/slot1_up.png,images/slot2_up.png","1","1","0","trial","0","0","19"
"two-choice","40","205215","0.0-3.37-0.37","522","","","","2","images/slot2_up.png,images/slot1_up.png","1","0","0","trial","1","0","19"
"two-choice","41","208087","0.0-3.38-0.38","592","","","","0","images/slot2_up.png,images/slot1_up.png","0","1","0","trial","0","0","19"
"two-choice","42","210835","0.0-3.39-0.39","480","","","","2","images/slot2_up.png,images/slot1_up.png","1","0","1","trial","0","1","20"
"two-choice","43","213492","0.0-3.40-0.40","387","","","","0","images/slot2_up.png,images/slot1_up.png","0","1","0","trial","0","0","20"
"two-choice","44","216271","0.0-3.41-0.41","500","","","","2","images/slot2_up.png,images/slot1_up.png","1","0","1","trial","0","1","21"
"two-choice","45","218998","0.0-3.42-0.42","452","","","","2","images/slot2_up.png,images/slot1_up.png","1","0","1","trial","0","1","22"
"two-choice","46","221695","0.0-3.43-0.43","413","","","","0","images/slot1_up.png,images/slot2_up.png","0","0","1","trial","0","1","23"
"two-choice","47","224447","0.0-3.44-0.44","470","","","","0","images/slot1_up.png,images/slot2_up.png","0","0","0","trial","1","0","23"
"two-choice","48","227175","0.0-3.45-0.45","459","","","","0","images/slot2_up.png,images/slot1_up.png","0","1","1","trial","1","1","24"
"two-choice","49","229926","0.0-3.46-0.46","470","","","","2","images/slot1_up.png,images/slot2_up.png","1","1","0","trial","0","0","24"
"two-choice","50","232623","0.0-3.47-0.47","414","","","","0","images/slot1_up.png,images/slot2_up.png","0","0","0","trial","1","0","24"
"two-choice","51","235324","0.0-3.48-0.48","427","","","","0","images/slot2_up.png,images/slot1_up.png","0","1","0","trial","0","0","24"
"two-choice","52","238052","0.0-3.49-0.49","450","","","","0","images/slot2_up.png,images/slot1_up.png","0","1","0","trial","0","0","24"
"two-choice","53","240887","0.0-3.50-0.50","550","","","","2","images/slot1_up.png,images/slot2_up.png","1","1","0","trial","0","0","24"
"two-choice","54","244167","0.0-3.51-0.51","996","","","","0","images/slot2_up.png,images/slot1_up.png","0","1","1","trial","1","1","25"
"two-choice","55","247591","0.0-3.52-0.52","1148","","","","0","images/slot1_up.png,images/slot2_up.png","0","0","0","trial","1","0","25"
"two-choice","56","250285","0.0-3.53-0.53","424","","","","0","images/slot2_up.png,images/slot1_up.png","0","1","1","trial","1","1","26"
"two-choice","57","252994","0.0-3.54-0.54","433","","","","0","images/slot2_up.png,images/slot1_up.png","0","1","1","trial","1","1","27"
"two-choice","58","255740","0.0-3.55-0.55","470","","","","0","images/slot2_up.png,images/slot1_up.png","0","1","0","trial","0","0","27"
"two-choice","59","258566","0.0-3.56-0.56","547","","","","0","images/slot1_up.png,images/slot2_up.png","0","0","0","trial","1","0","27"
"two-choice","60","261356","0.0-3.57-0.57","514","","","","0","images/slot2_up.png,images/slot1_up.png","0","1","1","trial","1","1","28"
"two-choice","61","264487","0.0-3.58-0.58","858","","","","2","images/slot2_up.png,images/slot1_up.png","1","0","1","trial","0","1","29"
"two-choice","62","267479","0.0-3.59-0.59","708","","","","0","images/slot2_up.png,images/slot1_up.png","0","1","1","trial","1","1","30"
"two-choice","63","270335","0.0-3.60-0.60","574","","","","2","images/slot2_up.png,images/slot1_up.png","1","0","0","trial","1","0","30"
"two-choice","64","273103","0.0-3.61-0.61","496","","","","0","images/slot2_up.png,images/slot1_up.png","0","1","1","trial","1","1","31"
"two-choice","65","276371","0.0-3.62-0.62","990","","","","0","images/slot2_up.png,images/slot1_up.png","0","1","0","trial","0","0","31"
"two-choice","66","279229","0.0-3.63-0.63","583","","","","2","images/slot2_up.png,images/slot1_up.png","1","0","1","trial","0","1","32"
"two-choice","67","282004","0.0-3.64-0.64","496","","","","0","images/slot1_up.png,images/slot2_up.png","0","0","0","trial","1","0","32"
"two-choice","68","284796","0.0-3.65-0.65","509","","","","0","images/slot1_up.png,images/slot2_up.png","0","0","0","trial","1","0","32"
"two-choice","69","287515","0.0-3.66-0.66","448","","","","2","images/slot1_up.png,images/slot2_up.png","1","1","1","trial","1","1","33"
"two-choice","70","290343","0.0-3.67-0.67","539","","","","0","images/slot2_up.png,images/slot1_up.png","0","1","1","trial","1","1","34"
"two-choice","71","293143","0.0-3.68-0.68","518","","","","2","images/slot1_up.png,images/slot2_up.png","1","1","0","trial","0","0","34"
"two-choice","72","295975","0.0-3.69-0.69","554","","","","0","images/slot1_up.png,images/slot2_up.png","0","0","1","trial","0","1","35"
"two-choice","73","298788","0.0-3.70-0.70","543","","","","0","images/slot2_up.png,images/slot1_up.png","0","1","0","trial","0","0","35"
"two-choice","74","301555","0.0-3.71-0.71","493","","","","2","images/slot2_up.png,images/slot1_up.png","1","0","1","trial","0","1","36"
"two-choice","75","304355","0.0-3.72-0.72","526","","","","0","images/slot2_up.png,images/slot1_up.png","0","1","0","trial","0","0","36"
"two-choice","76","307095","0.0-3.73-0.73","461","","","","0","images/slot1_up.png,images/slot2_up.png","0","0","1","trial","0","1","37"
"two-choice","77","309943","0.0-3.74-0.74","573","","","","2","images/slot2_up.png,images/slot1_up.png","1","0","1","trial","0","1","38"
"two-choice","78","312635","0.0-3.75-0.75","410","","","","0","images/slot2_up.png,images/slot1_up.png","0","1","0","trial","0","0","38"
"two-choice","79","315643","0.0-3.76-0.76","723","","","","0","images/slot1_up.png,images/slot2_up.png","0","0","0","trial","1","0","38"
"two-choice","80","318470","0.0-3.77-0.77","552","","","","2","images/slot1_up.png,images/slot2_up.png","1","1","0","trial","0","0","38"
"two-choice","81","321143","0.0-3.78-0.78","389","","","","0","images/slot1_up.png,images/slot2_up.png","0","0","0","trial","1","0","38"
"two-choice","82","323951","0.0-3.79-0.79","528","","","","0","images/slot2_up.png,images/slot1_up.png","0","1","1","trial","1","1","39"
"two-choice","83","326751","0.0-3.80-0.80","521","","","","0","images/slot1_up.png,images/slot2_up.png","0","0","1","trial","0","1","40"
"two-choice","84","329635","0.0-3.81-0.81","614","","","","2","images/slot2_up.png,images/slot1_up.png","1","0","1","trial","0","1","41"
"two-choice","85","332358","0.0-3.82-0.82","448","","","","0","images/slot2_up.png,images/slot1_up.png","0","1","0","trial","0","0","41"
"two-choice","86","335149","0.0-3.83-0.83","522","","","","2","images/slot2_up.png,images/slot1_up.png","1","0","0","trial","1","0","41"
"two-choice","87","337868","0.0-3.84-0.84","437","","","","0","images/slot2_up.png,images/slot1_up.png","0","1","1","trial","1","1","42"
"two-choice","88","341023","0.0-3.85-0.85","873","","","","0","images/slot2_up.png,images/slot1_up.png","0","1","0","trial","0","0","42"
"two-choice","89","343754","0.0-3.86-0.86","465","","","","2","images/slot2_up.png,images/slot1_up.png","1","0","0","trial","1","0","42"
"two-choice","90","346596","0.0-3.87-0.87","569","","","","2","images/slot1_up.png,images/slot2_up.png","1","1","0","trial","0","0","42"
"two-choice","91","349359","0.0-3.88-0.88","488","","","","2","images/slot2_up.png,images/slot1_up.png","1","0","1","trial","0","1","43"
"two-choice","92","352203","0.0-3.89-0.89","577","","","","0","images/slot1_up.png,images/slot2_up.png","0","0","0","trial","1","0","43"
"two-choice","93","355251","0.0-3.90-0.90","770","","","","0","images/slot2_up.png,images/slot1_up.png","0","1","1","trial","1","1","44"
"two-choice","94","357991","0.0-3.91-0.91","475","","","","2","images/slot1_up.png,images/slot2_up.png","1","1","1","trial","1","1","45"
"two-choice","95","360751","0.0-3.92-0.92","489","","","","2","images/slot1_up.png,images/slot2_up.png","1","1","1","trial","1","1","46"
"two-choice","96","363510","0.0-3.93-0.93","486","","","","2","images/slot1_up.png,images/slot2_up.png","1","1","1","trial","1","1","47"
"two-choice","97","366310","0.0-3.94-0.94","534","","","","0","images/slot2_up.png,images/slot1_up.png","0","1","1","trial","1","1","48"
"two-choice","98","369020","0.0-3.95-0.95","439","","","","2","images/slot1_up.png,images/slot2_up.png","1","1","1","trial","1","1","49"
"two-choice","99","371759","0.0-3.96-0.96","454","","","","0","images/slot2_up.png,images/slot1_up.png","0","1","1","trial","1","1","50"
"two-choice","100","374695","0.0-3.97-0.97","663","","","","0","images/slot2_up.png,images/slot1_up.png","0","1","1","trial","1","1","51"
"two-choice","101","377501","0.0-3.98-0.98","534","","","","2","images/slot1_up.png,images/slot2_up.png","1","1","1","trial","1","1","52"
"two-choice","102","380251","0.0-3.99-0.99","472","","","","0","images/slot2_up.png,images/slot1_up.png","0","1","0","trial","0","0","52"
"two-choice","103","383068","0.0-3.100-0.100","535","","","","0","images/slot2_up.png,images/slot1_up.png","0","1","1","trial","1","1","53"
"two-choice","104","385725","0.0-3.101-0.101","385","","","","2","images/slot1_up.png,images/slot2_up.png","1","1","1","trial","1","1","54"
"two-choice","105","388479","0.0-3.102-0.102","472","","","","2","images/slot1_up.png,images/slot2_up.png","1","1","0","trial","0","0","54"
"two-choice","106","391222","0.0-3.103-0.103","469","","","","0","images/slot2_up.png,images/slot1_up.png","0","1","1","trial","1","1","55"
"two-choice","107","393895","0.0-3.104-0.104","394","","","","2","images/slot1_up.png,images/slot2_up.png","1","1","0","trial","0","0","55"
"two-choice","108","396564","0.0-3.105-0.105","389","","","","0","images/slot2_up.png,images/slot1_up.png","0","1","1","trial","1","1","56"
"two-choice","109","399367","0.0-3.106-0.106","518","","","","0","images/slot2_up.png,images/slot1_up.png","0","1","0","trial","0","0","56"
"two-choice","110","402122","0.0-3.107-0.107","481","","","","2","images/slot1_up.png,images/slot2_up.png","1","1","0","trial","0","0","56"
"two-choice","111","404791","0.0-3.108-0.108","393","","","","0","images/slot2_up.png,images/slot1_up.png","0","1","1","trial","1","1","57"
"two-choice","112","407631","0.0-3.109-0.109","563","","","","0","images/slot2_up.png,images/slot1_up.png","0","1","0","trial","0","0","57"
"two-choice","113","410415","0.0-3.110-0.110","505","","","","2","images/slot1_up.png,images/slot2_up.png","1","1","0","trial","0","0","57"
"two-choice","114","413095","0.0-3.111-0.111","412","","","","0","images/slot2_up.png,images/slot1_up.png","0","1","0","trial","0","0","57"
"two-choice","115","415863","0.0-3.112-0.112","493","","","","0","images/slot2_up.png,images/slot1_up.png","0","1","0","trial","0","0","57"
"two-choice","116","418708","0.0-3.113-0.113","570","","","","2","images/slot1_up.png,images/slot2_up.png","1","1","0","trial","0","0","57"
"two-choice","117","421445","0.0-3.114-0.114","466","","","","0","images/slot1_up.png,images/slot2_up.png","0","0","1","trial","0","1","58"
"two-choice","118","424143","0.0-3.115-0.115","427","","","","2","images/slot2_up.png,images/slot1_up.png","1","0","1","trial","0","1","59"
"two-choice","119","426884","0.0-3.116-0.116","459","","","","2","images/slot2_up.png,images/slot1_up.png","1","0","1","trial","0","1","60"
"two-choice","120","429549","0.0-3.117-0.117","390","","","","0","images/slot1_up.png,images/slot2_up.png","0","0","0","trial","1","0","60"
"two-choice","121","432453","0.0-3.118-0.118","623","","","","2","images/slot2_up.png,images/slot1_up.png","1","0","1","trial","0","1","61"
"two-choice","122","435125","0.0-3.119-0.119","404","","","","2","images/slot2_up.png,images/slot1_up.png","1","0","1","trial","0","1","62"
"two-choice","123","437831","0.0-3.120-0.120","427","","","","2","images/slot2_up.png,images/slot1_up.png","1","0","0","trial","1","0","62"
"two-choice","124","440492","0.0-3.121-0.121","380","","","","2","images/slot2_up.png,images/slot1_up.png","1","0","0","trial","1","0","62"
"two-choice","125","443285","0.0-3.122-0.122","521","","","","0","images/slot2_up.png,images/slot1_up.png","0","1","1","trial","1","1","63"
"two-choice","126","446175","0.0-3.123-0.123","602","","","","0","images/slot1_up.png,images/slot2_up.png","0","0","0","trial","1","0","63"
"two-choice","127","448863","0.0-3.124-0.124","410","","","","2","images/slot1_up.png,images/slot2_up.png","1","1","0","trial","0","0","63"
"two-choice","128","451535","0.0-3.125-0.125","391","","","","2","images/slot1_up.png,images/slot2_up.png","1","1","1","trial","1","1","64"
"two-choice","129","454325","0.0-3.126-0.126","509","","","","0","images/slot2_up.png,images/slot1_up.png","0","1","1","trial","1","1","65"
"two-choice","130","457058","0.0-3.127-0.127","451","","","","2","images/slot1_up.png,images/slot2_up.png","1","1","1","trial","1","1","66"
"two-choice","131","459821","0.0-3.128-0.128","479","","","","0","images/slot2_up.png,images/slot1_up.png","0","1","0","trial","0","0","66"
"two-choice","132","462525","0.0-3.129-0.129","423","","","","0","images/slot1_up.png,images/slot2_up.png","0","0","0","trial","1","0","66"
"two-choice","133","465495","0.0-3.130-0.130","688","","","","2","images/slot1_up.png,images/slot2_up.png","1","1","1","trial","1","1","67"
"two-choice","134","468966","0.0-3.131-0.131","1197","","","","0","images/slot2_up.png,images/slot1_up.png","0","1","0","trial","0","0","67"
"two-choice","135","471741","0.0-3.132-0.132","491","","","","2","images/slot2_up.png,images/slot1_up.png","1","0","0","trial","1","0","67"
"two-choice","136","474447","0.0-3.133-0.133","420","","","","0","images/slot2_up.png,images/slot1_up.png","0","1","1","trial","1","1","68"
"two-choice","137","477060","0.0-3.134-0.134","345","","","","0","images/slot1_up.png,images/slot2_up.png","0","0","0","trial","1","0","68"
