trial_type,trial_index,time_elapsed,internal_node_id,rt,responses,partNum,view_history,key_press,images,key_choice,image_i_chosen,feedback_correct,phase,correct_stim,correct,score
pavlovia,0,5,0.0-0.0,,,,,,,,,,,,,
survey-text,1,94144,0.0-1.0,94138,{"Q0":"30"},"710",,,,,,,,,,
instructions,2,127741,0.0-2.0-0.0,33595,,,"[{""page_index"":0,""viewing_time"":15216},{""page_index"":1,""viewing_time"":8673},{""page_index"":2,""viewing_time"":7402},{""page_index"":3,""viewing_time"":2303}]",,,,,,,,,
two-choice,3,1,0.0-3.3-0.,1584.90901488221,,,,,,,1,1,trial,,1,1
two-choice,4,1,0.0-3.4-0.,908.476880347735,,,,,,,1,1,trial,,1,2
two-choice,5,1,0.0-3.5-0.,600.95601996909,,,,,,,1,0,trial,,0,2
two-choice,6,1,0.0-3.6-0.,782.379978538302,,,,,,,0,0,trial,,0,2
two-choice,7,1,0.0-3.7-0.,900.539623544319,,,,,,,1,0,trial,,0,2
two-choice,8,1,0.0-3.8-0.,620.427030640712,,,,,,,1,0,trial,,0,2
two-choice,9,1,0.0-3.9-0.,1031.37259186587,,,,,,,1,0,trial,,0,2
two-choice,10,1,0.0-3.10-0.,941.332700313069,,,,,,,1,0,trial,,0,2
two-choice,11,1,0.0-3.11-0.,2197.49314586261,,,,,,,0,0,trial,,0,2
two-choice,12,1,0.0-3.12-0.,866.066820088236,,,,,,,1,1,trial,,1,3
two-choice,13,1,0.0-3.13-0.,696.862939459606,,,,,,,1,0,trial,,0,3
two-choice,14,1,0.0-3.14-0.,1637.3265608072,,,,,,,1,1,trial,,1,4
two-choice,15,1,0.0-3.15-0.,932.122118672851,,,,,,,1,1,trial,,1,5
two-choice,16,1,0.0-3.16-0.,1378.66051921446,,,,,,,0,1,trial,,1,6
two-choice,17,1,0.0-3.17-0.,1592.57445689218,,,,,,,1,1,trial,,1,7
two-choice,18,1,0.0-3.18-0.,865.828775220507,,,,,,,1,0,trial,,0,7
two-choice,19,1,0.0-3.19-0.,865.946638883543,,,,,,,1,0,trial,,0,7
two-choice,20,1,0.0-3.20-0.,970.72147459221,,,,,,,1,1,trial,,1,8
two-choice,21,1,0.0-3.21-0.,865.533453912576,,,,,,,1,1,trial,,1,9
two-choice,22,1,0.0-3.22-0.,861.673087918462,,,,,,,1,1,trial,,1,10
two-choice,23,1,0.0-3.23-0.,681.180781997682,,,,,,,1,0,trial,,0,10
two-choice,24,1,0.0-3.24-0.,531.380372191052,,,,,,,1,0,trial,,0,10
two-choice,25,1,0.0-3.25-0.,652.409467629695,,,,,,,1,1,trial,,1,11
two-choice,26,1,0.0-3.26-0.,1055.88293622168,,,,,,,0,0,trial,,0,11
two-choice,27,1,0.0-3.27-0.,562.381825953707,,,,,,,1,0,trial,,0,11
two-choice,28,1,0.0-3.28-0.,560.845625419461,,,,,,,1,1,trial,,1,12
two-choice,29,1,0.0-3.29-0.,1106.32626581901,,,,,,,1,1,trial,,1,13
two-choice,30,1,0.0-3.30-0.,951.280591993054,,,,,,,1,0,trial,,0,13
two-choice,31,1,0.0-3.31-0.,591.234585435814,,,,,,,1,0,trial,,0,13
two-choice,32,1,0.0-3.32-0.,800.900465130326,,,,,,,1,0,trial,,0,13
two-choice,33,1,0.0-3.33-0.,1303.88099213451,,,,,,,0,0,trial,,0,13
two-choice,34,1,0.0-3.34-0.,397.331646161547,,,,,,,1,0,trial,,0,13
two-choice,35,1,0.0-3.35-0.,570.545870979913,,,,,,,1,0,trial,,0,13
two-choice,36,1,0.0-3.36-0.,546.26661885959,,,,,,,1,0,trial,,0,13
two-choice,37,1,0.0-3.37-0.,882.394910144285,,,,,,,1,0,trial,,0,13
two-choice,38,1,0.0-3.38-0.,562.515912421077,,,,,,,1,1,trial,,1,14
two-choice,39,1,0.0-3.39-0.,460.99093542216,,,,,,,1,1,trial,,1,15
two-choice,40,1,0.0-3.40-0.,792.454672980966,,,,,,,0,0,trial,,0,15
two-choice,41,1,0.0-3.41-0.,790.631097002915,,,,,,,0,0,trial,,0,15
two-choice,42,1,0.0-3.42-0.,638.634979881317,,,,,,,1,0,trial,,0,15
two-choice,43,1,0.0-3.43-0.,2215.91861315574,,,,,,,0,0,trial,,0,15
two-choice,44,1,0.0-3.44-0.,500.442485346866,,,,,,,1,1,trial,,1,16
two-choice,45,1,0.0-3.45-0.,815.675469691996,,,,,,,1,1,trial,,1,17
two-choice,46,1,0.0-3.46-0.,996.323051052968,,,,,,,1,1,trial,,1,18
two-choice,47,1,0.0-3.47-0.,786.23206759039,,,,,,,1,0,trial,,0,18
two-choice,48,1,0.0-3.48-0.,642.35165815262,,,,,,,1,1,trial,,1,19
two-choice,49,1,0.0-3.49-0.,522.439618876888,,,,,,,1,1,trial,,1,20
two-choice,50,1,0.0-3.50-0.,651.244074122587,,,,,,,1,1,trial,,1,21
two-choice,51,1,0.0-3.51-0.,752.64423482804,,,,,,,1,1,trial,,1,22
two-choice,52,1,0.0-3.52-0.,507.262354909471,,,,,,,1,1,trial,,1,23
two-choice,53,1,0.0-3.53-0.,441.020328502418,,,,,,,1,0,trial,,0,23
two-choice,54,1,0.0-3.54-0.,486.093908866678,,,,,,,1,1,trial,,1,24
two-choice,55,1,0.0-3.55-0.,646.188186552536,,,,,,,1,1,trial,,1,25
two-choice,56,1,0.0-3.56-0.,916.339975745359,,,,,,,1,0,trial,,0,25
two-choice,57,1,0.0-3.57-0.,491.208397190348,,,,,,,1,0,trial,,0,25
two-choice,58,1,0.0-3.58-0.,1246.27545863405,,,,,,,1,1,trial,,1,26
two-choice,59,1,0.0-3.59-0.,707.464378523582,,,,,,,1,1,trial,,1,27
two-choice,60,1,0.0-3.60-0.,585.90257906144,,,,,,,1,1,trial,,1,28
two-choice,61,1,0.0-3.61-0.,657.291539408106,,,,,,,1,1,trial,,1,29
two-choice,62,1,0.0-3.62-0.,570.826293793289,,,,,,,1,0,trial,,0,29
two-choice,63,1,0.0-3.63-0.,552.542527759215,,,,,,,1,1,trial,,1,30
two-choice,64,1,0.0-3.64-0.,586.065469291498,,,,,,,1,0,trial,,0,30
two-choice,65,1,0.0-3.65-0.,561.195574549856,,,,,,,1,1,trial,,1,31
two-choice,66,1,0.0-3.66-0.,472.638248944349,,,,,,,1,1,trial,,1,32
two-choice,67,1,0.0-3.67-0.,707.416703333365,,,,,,,1,1,trial,,1,33
two-choice,68,1,0.0-3.68-0.,1036.24175161349,,,,,,,0,0,trial,,0,33
two-choice,69,1,0.0-3.69-0.,662.424237005325,,,,,,,1,0,trial,,0,33
two-choice,70,1,0.0-3.70-0.,505.859247614353,,,,,,,1,0,trial,,0,33
two-choice,71,1,0.0-3.71-0.,627.309142810191,,,,,,,1,0,trial,,0,33
two-choice,72,1,0.0-3.72-0.,521.126564713995,,,,,,,1,0,trial,,0,33
two-choice,73,1,0.0-3.73-0.,615.885637815154,,,,,,,1,1,trial,,1,34
two-choice,74,1,0.0-3.74-0.,536.691851748401,,,,,,,1,0,trial,,0,34
two-choice,75,1,0.0-3.75-0.,540.770066867481,,,,,,,1,1,trial,,1,35
two-choice,76,1,0.0-3.76-0.,485.683372517087,,,,,,,1,0,trial,,0,35
two-choice,77,1,0.0-3.77-0.,415.731951548878,,,,,,,1,1,trial,,1,36
two-choice,78,1,0.0-3.78-0.,537.478492364244,,,,,,,1,0,trial,,0,36
two-choice,79,1,0.0-3.79-0.,602.602469376507,,,,,,,1,0,trial,,0,36
two-choice,80,1,0.0-3.80-0.,336.058102811876,,,,,,,1,0,trial,,0,36
two-choice,81,1,0.0-3.81-0.,656.169848158243,,,,,,,1,0,trial,,0,36
two-choice,82,1,0.0-3.82-0.,881.629789577346,,,,,,,1,0,trial,,0,36
two-choice,83,1,0.0-3.83-0.,916.135038647553,,,,,,,1,0,trial,,0,36
two-choice,84,1,0.0-3.84-0.,665.894593468693,,,,,,,1,1,trial,,1,37
two-choice,85,1,0.0-3.85-0.,975.811463167702,,,,,,,1,0,trial,,0,37
two-choice,86,1,0.0-3.86-0.,562.814544508001,,,,,,,1,0,trial,,0,37
two-choice,87,1,0.0-3.87-0.,611.018464533117,,,,,,,1,1,trial,,1,38
two-choice,88,1,0.0-3.88-0.,792.497713080593,,,,,,,0,1,trial,,1,39
two-choice,89,1,0.0-3.89-0.,747.653569564136,,,,,,,1,1,trial,,1,40
two-choice,90,1,0.0-3.90-0.,555.742062659192,,,,,,,1,1,trial,,1,41
two-choice,91,1,0.0-3.91-0.,491.161053078031,,,,,,,1,0,trial,,0,41
two-choice,92,1,0.0-3.92-0.,501.289713183724,,,,,,,1,0,trial,,0,41
two-choice,93,1,0.0-3.93-0.,400.704334701004,,,,,,,1,0,trial,,0,41
two-choice,94,1,0.0-3.94-0.,1191.2549798235,,,,,,,0,1,trial,,1,42
two-choice,95,1,0.0-3.95-0.,642.411583217836,,,,,,,1,0,trial,,0,42
two-choice,96,1,0.0-3.96-0.,535.523809618098,,,,,,,1,1,trial,,1,43
two-choice,97,1,0.0-3.97-0.,527.623964595477,,,,,,,1,1,trial,,1,44
two-choice,98,1,0.0-3.98-0.,423.822166247191,,,,,,,1,0,trial,,0,44
two-choice,99,1,0.0-3.99-0.,507.44842057793,,,,,,,1,0,trial,,0,44
two-choice,100,1,0.0-3.100-0.,560.759214140489,,,,,,,1,0,trial,,0,44
two-choice,101,1,0.0-3.101-0.,1196.11784909466,,,,,,,0,1,trial,,1,45
two-choice,102,1,0.0-3.102-0.,407.171275433939,,,,,,,1,0,trial,,0,45
two-choice,103,1,0.0-3.103-0.,901.0716654102,,,,,,,1,0,trial,,0,45
two-choice,104,1,0.0-3.104-0.,470.596492761615,,,,,,,1,1,trial,,1,46
two-choice,105,1,0.0-3.105-0.,2028.37567651659,,,,,,,1,1,trial,,1,47
two-choice,106,1,0.0-3.106-0.,621.231880530104,,,,,,,1,1,trial,,1,48
two-choice,107,1,0.0-3.107-0.,576.265900419457,,,,,,,1,0,trial,,0,48
two-choice,108,1,0.0-3.108-0.,350.989044969538,,,,,,,1,1,trial,,1,49
two-choice,109,1,0.0-3.109-0.,464.802964072078,,,,,,,1,0,trial,,0,49
two-choice,110,1,0.0-3.110-0.,745.750866017261,,,,,,,1,1,trial,,1,50
two-choice,111,1,0.0-3.111-0.,595.888213600119,,,,,,,1,1,trial,,1,51
two-choice,112,1,0.0-3.112-0.,506.011543355271,,,,,,,1,1,trial,,1,52
two-choice,113,1,0.0-3.113-0.,457.389803270416,,,,,,,1,1,trial,,1,53
two-choice,114,1,0.0-3.114-0.,542.885322298389,,,,,,,1,0,trial,,0,53
two-choice,115,1,0.0-3.115-0.,445.404790496468,,,,,,,1,0,trial,,0,53
two-choice,116,1,0.0-3.116-0.,417.432035541424,,,,,,,1,1,trial,,1,54
two-choice,117,1,0.0-3.117-0.,466.582837792885,,,,,,,1,0,trial,,0,54
two-choice,118,1,0.0-3.118-0.,422.07308275465,,,,,,,1,1,trial,,1,55
two-choice,119,1,0.0-3.119-0.,565.78066963084,,,,,,,1,1,trial,,1,56
two-choice,120,1,0.0-3.120-0.,387.612198093848,,,,,,,1,1,trial,,1,57
two-choice,121,1,0.0-3.121-0.,450.658331454179,,,,,,,1,0,trial,,0,57
two-choice,122,1,0.0-3.122-0.,425.528540719824,,,,,,,1,1,trial,,1,58
two-choice,123,1,0.0-3.123-0.,1163.25871835215,,,,,,,1,0,trial,,0,58
two-choice,124,1,0.0-3.124-0.,397.711392284691,,,,,,,1,1,trial,,1,59
two-choice,125,1,0.0-3.125-0.,555.838406271505,,,,,,,1,0,trial,,0,59
two-choice,126,1,0.0-3.126-0.,606.352586495632,,,,,,,1,1,trial,,1,60
two-choice,127,1,0.0-3.127-0.,3410.85120408025,,,,,,,1,1,trial,,1,61
two-choice,128,1,0.0-3.128-0.,517.64826238832,,,,,,,1,1,trial,,1,62
two-choice,129,1,0.0-3.129-0.,586.283318418282,,,,,,,1,0,trial,,0,62
two-choice,130,1,0.0-3.130-0.,477.39947736045,,,,,,,1,1,trial,,1,63
two-choice,131,1,0.0-3.131-0.,666.173360892572,,,,,,,1,0,trial,,0,63
two-choice,132,1,0.0-3.132-0.,185.870994249854,,,,,,,1,1,trial,,1,64
two-choice,133,1,0.0-3.133-0.,426.059258274108,,,,,,,1,1,trial,,1,65
two-choice,134,1,0.0-3.134-0.,390.340609426858,,,,,,,1,1,trial,,1,66
two-choice,135,1,0.0-3.135-0.,685.916186355826,,,,,,,0,1,trial,,1,67
two-choice,136,1,0.0-3.136-0.,366.036526478638,,,,,,,0,1,trial,,1,68
two-choice,137,1,0.0-3.137-0.,540.841910727977,,,,,,,1,0,trial,,0,68
